[{
  "_id": {
    "$oid": "66614e8d8c5e49b7d14939f0"
  },
  "data": {
    "trials": [
      {
        "success": true,
        "timeout": false,
        "failed_images": [],
        "failed_audio": [],
        "failed_video": [],
        "trial_type": "preload",
        "trial_index": 0,
        "time_elapsed": 1003,
        "internal_node_id": "0.0-0.0"
      },
      {
        "rt": 2711,
        "response": {
          "Q0": " I consent to participate"
        },
        "question_order": [
          0
        ],
        "trial_type": "survey-multi-choice",
        "trial_index": 1,
        "time_elapsed": 3715,
        "internal_node_id": "0.0-1.0"
      },
      {
        "view_history": [
          {
            "page_index": 0,
            "viewing_time": 1361
          },
          {
            "page_index": 1,
            "viewing_time": 4454
          }
        ],
        "rt": 5815,
        "trial_type": "instructions",
        "trial_index": 2,
        "time_elapsed": 9534,
        "internal_node_id": "0.0-2.0"
      },
      {
        "view_history": [
          {
            "page_index": 0,
            "viewing_time": 6330
          }
        ],
        "rt": 6330,
        "stimulus_type": "temp",
        "trial_type": "instructions",
        "trial_index": 3,
        "time_elapsed": 15864,
        "internal_node_id": "0.0-3.0"
      },
      {
        "rt": 2601,
        "stimulus": "Now the graph will be shown to you",
        "response": "v",
        "trial_type": "html-keyboard-response",
        "trial_index": 4,
        "time_elapsed": 18466,
        "internal_node_id": "0.0-4.0"
      },
      {
        "rt": 10678,
        "stimulus": "<div style='float: center;'><img src=../img/plots/continuous_0.479774992677482_.png width=\"1000\" ></img></div>",
        "response": "v",
        "stimulus_type": "../img/plots/continuous_0.479774992677482_.png",
        "trial_type": "html-keyboard-response",
        "trial_index": 5,
        "time_elapsed": 29144,
        "internal_node_id": "0.0-5.0"
      },
      {
        "rt": 17257,
        "response": {
          "Climate": 6,
          "Attention": 9,
          "Temperature": 7,
          "Freeze": 3
        },
        "question_order": [
          2,
          3,
          0,
          1
        ],
        "trial_type": "survey-likert",
        "trial_index": 6,
        "time_elapsed": 46404,
        "internal_node_id": "0.0-6.0"
      }
    ]
  },
  "__v": 0
},
{
  "_id": {
    "$oid": "66614e908c5e49b7d14939f2"
  },
  "data": {
    "trials": [
      {
        "success": true,
        "timeout": false,
        "failed_images": [],
        "failed_audio": [],
        "failed_video": [],
        "trial_type": "preload",
        "trial_index": 0,
        "time_elapsed": 527,
        "internal_node_id": "0.0-0.0"
      },
      {
        "rt": 3483,
        "response": {
          "Q0": " I consent to participate"
        },
        "question_order": [
          0
        ],
        "trial_type": "survey-multi-choice",
        "trial_index": 1,
        "time_elapsed": 4011,
        "internal_node_id": "0.0-1.0"
      },
      {
        "view_history": [
          {
            "page_index": 0,
            "viewing_time": 1806
          },
          {
            "page_index": 1,
            "viewing_time": 3898
          }
        ],
        "rt": 5704,
        "trial_type": "instructions",
        "trial_index": 2,
        "time_elapsed": 9717,
        "internal_node_id": "0.0-2.0"
      },
      {
        "view_history": [
          {
            "page_index": 0,
            "viewing_time": 4684
          }
        ],
        "rt": 4685,
        "stimulus_type": "temp",
        "trial_type": "instructions",
        "trial_index": 3,
        "time_elapsed": 14402,
        "internal_node_id": "0.0-3.0"
      },
      {
        "rt": 2463,
        "stimulus": "Now the graph will be shown to you",
        "response": "v",
        "trial_type": "html-keyboard-response",
        "trial_index": 4,
        "time_elapsed": 16867,
        "internal_node_id": "0.0-4.0"
      },
      {
        "rt": 2096,
        "stimulus": "<div style='float: center;'><img src=../img/plots/continuous_0.63940802173239_.png width=\"1000\" ></img></div>",
        "response": "v",
        "stimulus_type": "../img/plots/continuous_0.63940802173239_.png",
        "trial_type": "html-keyboard-response",
        "trial_index": 5,
        "time_elapsed": 18964,
        "internal_node_id": "0.0-5.0"
      },
      {
        "rt": 14572,
        "response": {
          "Temperature": 0,
          "Climate": 0,
          "Freeze": 0,
          "Attention": 9
        },
        "question_order": [
          0,
          2,
          1,
          3
        ],
        "trial_type": "survey-likert",
        "trial_index": 6,
        "time_elapsed": 33539,
        "internal_node_id": "0.0-6.0"
      }
    ]
  },
  "__v": 0
},
{
  "_id": {
    "$oid": "66614e9a8c5e49b7d14939f4"
  },
  "data": {
    "trials": [
      {
        "success": true,
        "timeout": false,
        "failed_images": [],
        "failed_audio": [],
        "failed_video": [],
        "trial_type": "preload",
        "trial_index": 0,
        "time_elapsed": 502,
        "internal_node_id": "0.0-0.0"
      },
      {
        "rt": 3388,
        "response": {
          "Q0": " I consent to participate"
        },
        "question_order": [
          0
        ],
        "trial_type": "survey-multi-choice",
        "trial_index": 1,
        "time_elapsed": 3891,
        "internal_node_id": "0.0-1.0"
      },
      {
        "view_history": [
          {
            "page_index": 0,
            "viewing_time": 1453
          },
          {
            "page_index": 1,
            "viewing_time": 4265
          }
        ],
        "rt": 5718,
        "trial_type": "instructions",
        "trial_index": 2,
        "time_elapsed": 9611,
        "internal_node_id": "0.0-2.0"
      },
      {
        "view_history": [
          {
            "page_index": 0,
            "viewing_time": 18836
          }
        ],
        "rt": 18836,
        "stimulus_type": "temp",
        "trial_type": "instructions",
        "trial_index": 3,
        "time_elapsed": 28447,
        "internal_node_id": "0.0-3.0"
      },
      {
        "rt": 1899,
        "stimulus": "Now the graph will be shown to you",
        "response": "v",
        "trial_type": "html-keyboard-response",
        "trial_index": 4,
        "time_elapsed": 30347,
        "internal_node_id": "0.0-4.0"
      },
      {
        "rt": 1630,
        "stimulus": "<div style='float: center;'><img src=../img/plots/continuous_0.389984422823742_.png width=\"1000\" ></img></div>",
        "response": "v",
        "stimulus_type": "../img/plots/continuous_0.389984422823742_.png",
        "trial_type": "html-keyboard-response",
        "trial_index": 5,
        "time_elapsed": 31978,
        "internal_node_id": "0.0-5.0"
      },
      {
        "rt": 17572,
        "response": {
          "Freeze": 6,
          "Temperature": 6,
          "Climate": 6,
          "Attention": 9
        },
        "question_order": [
          1,
          0,
          2,
          3
        ],
        "trial_type": "survey-likert",
        "trial_index": 6,
        "time_elapsed": 49552,
        "internal_node_id": "0.0-6.0"
      }
    ]
  },
  "__v": 0
},
{
  "_id": {
    "$oid": "66614ea28c5e49b7d14939f6"
  },
  "data": {
    "trials": [
      {
        "success": true,
        "timeout": false,
        "failed_images": [],
        "failed_audio": [],
        "failed_video": [],
        "trial_type": "preload",
        "trial_index": 0,
        "time_elapsed": 671,
        "internal_node_id": "0.0-0.0"
      },
      {
        "rt": 5438,
        "response": {
          "Q0": " I consent to participate"
        },
        "question_order": [
          0
        ],
        "trial_type": "survey-multi-choice",
        "trial_index": 1,
        "time_elapsed": 6110,
        "internal_node_id": "0.0-1.0"
      },
      {
        "view_history": [
          {
            "page_index": 0,
            "viewing_time": 3431
          },
          {
            "page_index": 1,
            "viewing_time": 5200
          }
        ],
        "rt": 8631,
        "trial_type": "instructions",
        "trial_index": 2,
        "time_elapsed": 14742,
        "internal_node_id": "0.0-2.0"
      },
      {
        "view_history": [
          {
            "page_index": 0,
            "viewing_time": 5394
          }
        ],
        "rt": 5394,
        "stimulus_type": "temp",
        "trial_type": "instructions",
        "trial_index": 3,
        "time_elapsed": 20137,
        "internal_node_id": "0.0-3.0"
      },
      {
        "rt": 2504,
        "stimulus": "Now the graph will be shown to you",
        "response": "v",
        "trial_type": "html-keyboard-response",
        "trial_index": 4,
        "time_elapsed": 22642,
        "internal_node_id": "0.0-4.0"
      },
      {
        "rt": 17454,
        "stimulus": "<div style='float: center;'><img src=../img/plots/continuous_0.425065517952992_.png width=\"1000\" ></img></div>",
        "response": "v",
        "stimulus_type": "../img/plots/continuous_0.425065517952992_.png",
        "trial_type": "html-keyboard-response",
        "trial_index": 5,
        "time_elapsed": 40097,
        "internal_node_id": "0.0-5.0"
      },
      {
        "rt": 20586,
        "response": {
          "Freeze": 2,
          "Climate": 3,
          "Temperature": 4,
          "Attention": 9
        },
        "question_order": [
          1,
          2,
          0,
          3
        ],
        "trial_type": "survey-likert",
        "trial_index": 6,
        "time_elapsed": 60683,
        "internal_node_id": "0.0-6.0"
      }
    ]
  },
  "__v": 0
},
{
  "_id": {
    "$oid": "66614ea58c5e49b7d14939f8"
  },
  "data": {
    "trials": [
      {
        "success": true,
        "timeout": false,
        "failed_images": [],
        "failed_audio": [],
        "failed_video": [],
        "trial_type": "preload",
        "trial_index": 0,
        "time_elapsed": 875,
        "internal_node_id": "0.0-0.0"
      },
      {
        "rt": 6961,
        "response": {
          "Q0": " I consent to participate"
        },
        "question_order": [
          0
        ],
        "trial_type": "survey-multi-choice",
        "trial_index": 1,
        "time_elapsed": 7837,
        "internal_node_id": "0.0-1.0"
      },
      {
        "view_history": [
          {
            "page_index": 0,
            "viewing_time": 9826
          },
          {
            "page_index": 1,
            "viewing_time": 6408
          }
        ],
        "rt": 16234,
        "trial_type": "instructions",
        "trial_index": 2,
        "time_elapsed": 24073,
        "internal_node_id": "0.0-2.0"
      },
      {
        "view_history": [
          {
            "page_index": 0,
            "viewing_time": 7908
          }
        ],
        "rt": 7908,
        "stimulus_type": "temp",
        "trial_type": "instructions",
        "trial_index": 3,
        "time_elapsed": 31981,
        "internal_node_id": "0.0-3.0"
      },
      {
        "rt": 2880,
        "stimulus": "Now the graph will be shown to you",
        "response": "v",
        "trial_type": "html-keyboard-response",
        "trial_index": 4,
        "time_elapsed": 34861,
        "internal_node_id": "0.0-4.0"
      },
      {
        "rt": 9879,
        "stimulus": "<div style='float: center;'><img src=../img/plots/continuous_0.425065517952992_.png width=\"1000\" ></img></div>",
        "response": "v",
        "stimulus_type": "../img/plots/continuous_0.425065517952992_.png",
        "trial_type": "html-keyboard-response",
        "trial_index": 5,
        "time_elapsed": 44740,
        "internal_node_id": "0.0-5.0"
      },
      {
        "rt": 30636,
        "response": {
          "Attention": 9,
          "Freeze": 3,
          "Climate": 7,
          "Temperature": 7
        },
        "question_order": [
          3,
          1,
          2,
          0
        ],
        "trial_type": "survey-likert",
        "trial_index": 6,
        "time_elapsed": 75378,
        "internal_node_id": "0.0-6.0"
      }
    ]
  },
  "__v": 0
},
{
  "_id": {
    "$oid": "66614ea98c5e49b7d14939fa"
  },
  "data": {
    "trials": [
      {
        "success": true,
        "timeout": false,
        "failed_images": [],
        "failed_audio": [],
        "failed_video": [],
        "trial_type": "preload",
        "trial_index": 0,
        "time_elapsed": 1591,
        "internal_node_id": "0.0-0.0"
      },
      {
        "rt": 5027,
        "response": {
          "Q0": " I consent to participate"
        },
        "question_order": [
          0
        ],
        "trial_type": "survey-multi-choice",
        "trial_index": 1,
        "time_elapsed": 6622,
        "internal_node_id": "0.0-1.0"
      },
      {
        "view_history": [
          {
            "page_index": 0,
            "viewing_time": 2793
          },
          {
            "page_index": 1,
            "viewing_time": 7056
          }
        ],
        "rt": 9850,
        "trial_type": "instructions",
        "trial_index": 2,
        "time_elapsed": 16481,
        "internal_node_id": "0.0-2.0"
      },
      {
        "view_history": [
          {
            "page_index": 0,
            "viewing_time": 9540
          }
        ],
        "rt": 9541,
        "stimulus_type": "temp",
        "trial_type": "instructions",
        "trial_index": 3,
        "time_elapsed": 26024,
        "internal_node_id": "0.0-3.0"
      },
      {
        "rt": 2343,
        "stimulus": "Now the graph will be shown to you",
        "response": "v",
        "trial_type": "html-keyboard-response",
        "trial_index": 4,
        "time_elapsed": 28371,
        "internal_node_id": "0.0-4.0"
      },
      {
        "rt": 28984,
        "stimulus": "<div style='float: center;'><img src=../img/plots/continuous_0.63940802173239_.png width=\"1000\" ></img></div>",
        "response": "v",
        "stimulus_type": "../img/plots/continuous_0.63940802173239_.png",
        "trial_type": "html-keyboard-response",
        "trial_index": 5,
        "time_elapsed": 57358,
        "internal_node_id": "0.0-5.0"
      },
      {
        "rt": 17110,
        "response": {
          "Freeze": 7,
          "Attention": 9,
          "Climate": 7,
          "Temperature": 7
        },
        "question_order": [
          1,
          3,
          2,
          0
        ],
        "trial_type": "survey-likert",
        "trial_index": 6,
        "time_elapsed": 74480,
        "internal_node_id": "0.0-6.0"
      }
    ]
  },
  "__v": 0
},
{
  "_id": {
    "$oid": "66614eaf8c5e49b7d14939fc"
  },
  "data": {
    "trials": [
      {
        "success": true,
        "timeout": false,
        "failed_images": [],
        "failed_audio": [],
        "failed_video": [],
        "trial_type": "preload",
        "trial_index": 0,
        "time_elapsed": 348,
        "internal_node_id": "0.0-0.0"
      },
      {
        "rt": 4479,
        "response": {
          "Q0": " I consent to participate"
        },
        "question_order": [
          0
        ],
        "trial_type": "survey-multi-choice",
        "trial_index": 1,
        "time_elapsed": 4831,
        "internal_node_id": "0.0-1.0"
      },
      {
        "view_history": [
          {
            "page_index": 0,
            "viewing_time": 1657
          },
          {
            "page_index": 1,
            "viewing_time": 5339
          }
        ],
        "rt": 6996,
        "trial_type": "instructions",
        "trial_index": 2,
        "time_elapsed": 11829,
        "internal_node_id": "0.0-2.0"
      },
      {
        "view_history": [
          {
            "page_index": 0,
            "viewing_time": 9529
          }
        ],
        "rt": 9529,
        "stimulus_type": "freeze",
        "trial_type": "instructions",
        "trial_index": 3,
        "time_elapsed": 21358,
        "internal_node_id": "0.0-3.0"
      },
      {
        "rt": 1910,
        "stimulus": "Now the graph will be shown to you",
        "response": "v",
        "trial_type": "html-keyboard-response",
        "trial_index": 4,
        "time_elapsed": 23268,
        "internal_node_id": "0.0-4.0"
      },
      {
        "rt": 12452,
        "stimulus": "<div style='float: center;'><img src=../img/plots/binary_0.147948235627417_.png width=\"1000\"></img></div>",
        "response": "v",
        "stimulus_type": "../img/plots/binary_0.147948235627417_.png",
        "trial_type": "html-keyboard-response",
        "trial_index": 5,
        "time_elapsed": 35721,
        "internal_node_id": "0.0-5.0"
      },
      {
        "rt": 24133,
        "response": {
          "Freeze": 0,
          "Climate": 1,
          "Attention": 9,
          "Temperature": 1
        },
        "question_order": [
          1,
          2,
          3,
          0
        ],
        "trial_type": "survey-likert",
        "trial_index": 6,
        "time_elapsed": 59856,
        "internal_node_id": "0.0-6.0"
      }
    ]
  },
  "__v": 0
},
{
  "_id": {
    "$oid": "66614ebf8c5e49b7d14939fe"
  },
  "data": {
    "trials": [
      {
        "success": true,
        "timeout": false,
        "failed_images": [],
        "failed_audio": [],
        "failed_video": [],
        "trial_type": "preload",
        "trial_index": 0,
        "time_elapsed": 1137,
        "internal_node_id": "0.0-0.0"
      },
      {
        "rt": 8074,
        "response": {
          "Q0": " I consent to participate"
        },
        "question_order": [
          0
        ],
        "trial_type": "survey-multi-choice",
        "trial_index": 1,
        "time_elapsed": 9212,
        "internal_node_id": "0.0-1.0"
      },
      {
        "view_history": [
          {
            "page_index": 0,
            "viewing_time": 4045
          },
          {
            "page_index": 1,
            "viewing_time": 7960
          }
        ],
        "rt": 12006,
        "trial_type": "instructions",
        "trial_index": 2,
        "time_elapsed": 21219,
        "internal_node_id": "0.0-2.0"
      },
      {
        "view_history": [
          {
            "page_index": 0,
            "viewing_time": 7919
          }
        ],
        "rt": 7920,
        "stimulus_type": "temp",
        "trial_type": "instructions",
        "trial_index": 3,
        "time_elapsed": 29139,
        "internal_node_id": "0.0-3.0"
      },
      {
        "rt": 4231,
        "stimulus": "Now the graph will be shown to you",
        "response": "v",
        "trial_type": "html-keyboard-response",
        "trial_index": 4,
        "time_elapsed": 33370,
        "internal_node_id": "0.0-4.0"
      },
      {
        "rt": 20885,
        "stimulus": "<div style='float: center;'><img src=../img/plots/continuous_0.556919429826064_.png width=\"1000\" ></img></div>",
        "response": "v",
        "stimulus_type": "../img/plots/continuous_0.556919429826064_.png",
        "trial_type": "html-keyboard-response",
        "trial_index": 5,
        "time_elapsed": 54255,
        "internal_node_id": "0.0-5.0"
      },
      {
        "rt": 48739,
        "response": {
          "Attention": 9,
          "Freeze": 7,
          "Climate": 8,
          "Temperature": 8
        },
        "question_order": [
          3,
          1,
          2,
          0
        ],
        "trial_type": "survey-likert",
        "trial_index": 6,
        "time_elapsed": 102993,
        "internal_node_id": "0.0-6.0"
      }
    ]
  },
  "__v": 0
},
{
  "_id": {
    "$oid": "66614ec08c5e49b7d1493a00"
  },
  "data": {
    "trials": [
      {
        "success": true,
        "timeout": false,
        "failed_images": [],
        "failed_audio": [],
        "failed_video": [],
        "trial_type": "preload",
        "trial_index": 0,
        "time_elapsed": 1064,
        "internal_node_id": "0.0-0.0"
      },
      {
        "rt": 9220,
        "response": {
          "Q0": " I consent to participate"
        },
        "question_order": [
          0
        ],
        "trial_type": "survey-multi-choice",
        "trial_index": 1,
        "time_elapsed": 10287,
        "internal_node_id": "0.0-1.0"
      },
      {
        "view_history": [
          {
            "page_index": 0,
            "viewing_time": 3294
          },
          {
            "page_index": 1,
            "viewing_time": 6516
          }
        ],
        "rt": 9810,
        "trial_type": "instructions",
        "trial_index": 2,
        "time_elapsed": 20101,
        "internal_node_id": "0.0-2.0"
      },
      {
        "view_history": [
          {
            "page_index": 0,
            "viewing_time": 10449
          }
        ],
        "rt": 10449,
        "stimulus_type": "temp",
        "trial_type": "instructions",
        "trial_index": 3,
        "time_elapsed": 30551,
        "internal_node_id": "0.0-3.0"
      },
      {
        "rt": 4123,
        "stimulus": "Now the graph will be shown to you",
        "response": "v",
        "trial_type": "html-keyboard-response",
        "trial_index": 4,
        "time_elapsed": 34676,
        "internal_node_id": "0.0-4.0"
      },
      {
        "rt": 17675,
        "stimulus": "<div style='float: center;'><img src=../img/plots/continuous_0.433806978380989_.png width=\"1000\" ></img></div>",
        "response": "v",
        "stimulus_type": "../img/plots/continuous_0.433806978380989_.png",
        "trial_type": "html-keyboard-response",
        "trial_index": 5,
        "time_elapsed": 52351,
        "internal_node_id": "0.0-5.0"
      },
      {
        "rt": 34966,
        "response": {
          "Temperature": 5,
          "Attention": 9,
          "Freeze": 3,
          "Climate": 4
        },
        "question_order": [
          0,
          3,
          1,
          2
        ],
        "trial_type": "survey-likert",
        "trial_index": 6,
        "time_elapsed": 87320,
        "internal_node_id": "0.0-6.0"
      }
    ]
  },
  "__v": 0
},
{
  "_id": {
    "$oid": "66614ec28c5e49b7d1493a02"
  },
  "data": {
    "trials": [
      {
        "success": true,
        "timeout": false,
        "failed_images": [],
        "failed_audio": [],
        "failed_video": [],
        "trial_type": "preload",
        "trial_index": 0,
        "time_elapsed": 1093,
        "internal_node_id": "0.0-0.0"
      },
      {
        "rt": 6756,
        "response": {
          "Q0": " I consent to participate"
        },
        "question_order": [
          0
        ],
        "trial_type": "survey-multi-choice",
        "trial_index": 1,
        "time_elapsed": 7851,
        "internal_node_id": "0.0-1.0"
      },
      {
        "view_history": [
          {
            "page_index": 0,
            "viewing_time": 1416
          },
          {
            "page_index": 1,
            "viewing_time": 10377
          }
        ],
        "rt": 11794,
        "trial_type": "instructions",
        "trial_index": 2,
        "time_elapsed": 19648,
        "internal_node_id": "0.0-2.0"
      },
      {
        "view_history": [
          {
            "page_index": 0,
            "viewing_time": 5437
          }
        ],
        "rt": 5438,
        "stimulus_type": "freeze",
        "trial_type": "instructions",
        "trial_index": 3,
        "time_elapsed": 25086,
        "internal_node_id": "0.0-3.0"
      },
      {
        "rt": 16104,
        "stimulus": "Now the graph will be shown to you",
        "response": "v",
        "trial_type": "html-keyboard-response",
        "trial_index": 4,
        "time_elapsed": 41190,
        "internal_node_id": "0.0-4.0"
      },
      {
        "rt": 11818,
        "stimulus": "<div style='float: center;'><img src=../img/plots/binary_0.634839480557545_.png width=\"1000\"></img></div>",
        "response": "v",
        "stimulus_type": "../img/plots/binary_0.634839480557545_.png",
        "trial_type": "html-keyboard-response",
        "trial_index": 5,
        "time_elapsed": 53009,
        "internal_node_id": "0.0-5.0"
      },
      {
        "rt": 53551,
        "response": {
          "Attention": 9,
          "Freeze": 6,
          "Temperature": 6,
          "Climate": 7
        },
        "question_order": [
          3,
          1,
          0,
          2
        ],
        "trial_type": "survey-likert",
        "trial_index": 6,
        "time_elapsed": 106563,
        "internal_node_id": "0.0-6.0"
      }
    ]
  },
  "__v": 0
},
{
  "_id": {
    "$oid": "66614ec58c5e49b7d1493a04"
  },
  "data": {
    "trials": [
      {
        "success": true,
        "timeout": false,
        "failed_images": [],
        "failed_audio": [],
        "failed_video": [],
        "trial_type": "preload",
        "trial_index": 0,
        "time_elapsed": 722,
        "internal_node_id": "0.0-0.0"
      },
      {
        "rt": 2875,
        "response": {
          "Q0": " I consent to participate"
        },
        "question_order": [
          0
        ],
        "trial_type": "survey-multi-choice",
        "trial_index": 1,
        "time_elapsed": 3604,
        "internal_node_id": "0.0-1.0"
      },
      {
        "view_history": [
          {
            "page_index": 0,
            "viewing_time": 4759
          },
          {
            "page_index": 1,
            "viewing_time": 7203
          }
        ],
        "rt": 11963,
        "trial_type": "instructions",
        "trial_index": 2,
        "time_elapsed": 15575,
        "internal_node_id": "0.0-2.0"
      },
      {
        "view_history": [
          {
            "page_index": 0,
            "viewing_time": 5085
          }
        ],
        "rt": 5086,
        "stimulus_type": "temp",
        "trial_type": "instructions",
        "trial_index": 3,
        "time_elapsed": 20663,
        "internal_node_id": "0.0-3.0"
      },
      {
        "rt": 2877,
        "stimulus": "Now the graph will be shown to you",
        "response": "v",
        "trial_type": "html-keyboard-response",
        "trial_index": 4,
        "time_elapsed": 23544,
        "internal_node_id": "0.0-4.0"
      },
      {
        "rt": 10220,
        "stimulus": "<div style='float: center;'><img src=../img/plots/continuous_0.154558810800488_.png width=\"1000\" ></img></div>",
        "response": "v",
        "stimulus_type": "../img/plots/continuous_0.154558810800488_.png",
        "trial_type": "html-keyboard-response",
        "trial_index": 5,
        "time_elapsed": 33766,
        "internal_node_id": "0.0-5.0"
      },
      {
        "rt": 21516,
        "response": {
          "Climate": 5,
          "Attention": 9,
          "Freeze": 4,
          "Temperature": 4
        },
        "question_order": [
          2,
          3,
          1,
          0
        ],
        "trial_type": "survey-likert",
        "trial_index": 6,
        "time_elapsed": 55289,
        "internal_node_id": "0.0-6.0"
      }
    ]
  },
  "__v": 0
},
{
  "_id": {
    "$oid": "66614ec78c5e49b7d1493a06"
  },
  "data": {
    "trials": [
      {
        "success": true,
        "timeout": false,
        "failed_images": [],
        "failed_audio": [],
        "failed_video": [],
        "trial_type": "preload",
        "trial_index": 0,
        "time_elapsed": 1020,
        "internal_node_id": "0.0-0.0"
      },
      {
        "rt": 8983,
        "response": {
          "Q0": " I consent to participate"
        },
        "question_order": [
          0
        ],
        "trial_type": "survey-multi-choice",
        "trial_index": 1,
        "time_elapsed": 10006,
        "internal_node_id": "0.0-1.0"
      },
      {
        "view_history": [
          {
            "page_index": 0,
            "viewing_time": 4328
          },
          {
            "page_index": 1,
            "viewing_time": 9366
          }
        ],
        "rt": 13695,
        "trial_type": "instructions",
        "trial_index": 2,
        "time_elapsed": 23703,
        "internal_node_id": "0.0-2.0"
      },
      {
        "view_history": [
          {
            "page_index": 0,
            "viewing_time": 9733
          }
        ],
        "rt": 9734,
        "stimulus_type": "temp",
        "trial_type": "instructions",
        "trial_index": 3,
        "time_elapsed": 33437,
        "internal_node_id": "0.0-3.0"
      },
      {
        "rt": 5346,
        "stimulus": "Now the graph will be shown to you",
        "response": "v",
        "trial_type": "html-keyboard-response",
        "trial_index": 4,
        "time_elapsed": 38785,
        "internal_node_id": "0.0-4.0"
      },
      {
        "rt": 29719,
        "stimulus": "<div style='float: center;'><img src=../img/plots/continuous_0.228262992110872_.png width=\"1000\" ></img></div>",
        "response": "v",
        "stimulus_type": "../img/plots/continuous_0.228262992110872_.png",
        "trial_type": "html-keyboard-response",
        "trial_index": 5,
        "time_elapsed": 68504,
        "internal_node_id": "0.0-5.0"
      },
      {
        "rt": 45300,
        "response": {
          "Climate": 6,
          "Attention": 9,
          "Freeze": 5,
          "Temperature": 6
        },
        "question_order": [
          2,
          3,
          1,
          0
        ],
        "trial_type": "survey-likert",
        "trial_index": 6,
        "time_elapsed": 113807,
        "internal_node_id": "0.0-6.0"
      }
    ]
  },
  "__v": 0
},
{
  "_id": {
    "$oid": "66614ec78c5e49b7d1493a08"
  },
  "data": {
    "trials": [
      {
        "success": true,
        "timeout": false,
        "failed_images": [],
        "failed_audio": [],
        "failed_video": [],
        "trial_type": "preload",
        "trial_index": 0,
        "time_elapsed": 2030,
        "internal_node_id": "0.0-0.0"
      },
      {
        "rt": 3678,
        "response": {
          "Q0": " I consent to participate"
        },
        "question_order": [
          0
        ],
        "trial_type": "survey-multi-choice",
        "trial_index": 1,
        "time_elapsed": 5710,
        "internal_node_id": "0.0-1.0"
      },
      {
        "view_history": [
          {
            "page_index": 0,
            "viewing_time": 1637
          },
          {
            "page_index": 1,
            "viewing_time": 34208
          }
        ],
        "rt": 35845,
        "trial_type": "instructions",
        "trial_index": 2,
        "time_elapsed": 41559,
        "internal_node_id": "0.0-2.0"
      },
      {
        "view_history": [
          {
            "page_index": 0,
            "viewing_time": 9749
          }
        ],
        "rt": 9749,
        "stimulus_type": "freeze",
        "trial_type": "instructions",
        "trial_index": 3,
        "time_elapsed": 51308,
        "internal_node_id": "0.0-3.0"
      },
      {
        "rt": 1431,
        "stimulus": "Now the graph will be shown to you",
        "response": "v",
        "trial_type": "html-keyboard-response",
        "trial_index": 4,
        "time_elapsed": 52741,
        "internal_node_id": "0.0-4.0"
      },
      {
        "rt": 7302,
        "stimulus": "<div style='float: center;'><img src=../img/plots/binary_0.542787755876701_.png width=\"1000\"></img></div>",
        "response": "v",
        "stimulus_type": "../img/plots/binary_0.542787755876701_.png",
        "trial_type": "html-keyboard-response",
        "trial_index": 5,
        "time_elapsed": 60043,
        "internal_node_id": "0.0-5.0"
      },
      {
        "rt": 13568,
        "response": {
          "Freeze": 8,
          "Temperature": 7,
          "Attention": 9,
          "Climate": 7
        },
        "question_order": [
          1,
          0,
          3,
          2
        ],
        "trial_type": "survey-likert",
        "trial_index": 6,
        "time_elapsed": 73614,
        "internal_node_id": "0.0-6.0"
      }
    ]
  },
  "__v": 0
},
{
  "_id": {
    "$oid": "66614ec88c5e49b7d1493a0a"
  },
  "data": {
    "trials": [
      {
        "success": true,
        "timeout": false,
        "failed_images": [],
        "failed_audio": [],
        "failed_video": [],
        "trial_type": "preload",
        "trial_index": 0,
        "time_elapsed": 902,
        "internal_node_id": "0.0-0.0"
      },
      {
        "rt": 51563,
        "response": {
          "Q0": " I consent to participate"
        },
        "question_order": [
          0
        ],
        "trial_type": "survey-multi-choice",
        "trial_index": 1,
        "time_elapsed": 52467,
        "internal_node_id": "0.0-1.0"
      },
      {
        "view_history": [
          {
            "page_index": 0,
            "viewing_time": 4164
          },
          {
            "page_index": 1,
            "viewing_time": 7016
          }
        ],
        "rt": 11181,
        "trial_type": "instructions",
        "trial_index": 2,
        "time_elapsed": 63650,
        "internal_node_id": "0.0-2.0"
      },
      {
        "view_history": [
          {
            "page_index": 0,
            "viewing_time": 12249
          }
        ],
        "rt": 12249,
        "stimulus_type": "temp",
        "trial_type": "instructions",
        "trial_index": 3,
        "time_elapsed": 75899,
        "internal_node_id": "0.0-3.0"
      },
      {
        "rt": 7526,
        "stimulus": "Now the graph will be shown to you",
        "response": "v",
        "trial_type": "html-keyboard-response",
        "trial_index": 4,
        "time_elapsed": 83426,
        "internal_node_id": "0.0-4.0"
      },
      {
        "rt": 23132,
        "stimulus": "<div style='float: center;'><img src=../img/plots/continuous_0.240944269450365_.png width=\"1000\" ></img></div>",
        "response": "v",
        "stimulus_type": "../img/plots/continuous_0.240944269450365_.png",
        "trial_type": "html-keyboard-response",
        "trial_index": 5,
        "time_elapsed": 106560,
        "internal_node_id": "0.0-5.0"
      },
      {
        "rt": 20539,
        "response": {
          "Freeze": 7,
          "Climate": 7,
          "Attention": 9,
          "Temperature": 7
        },
        "question_order": [
          1,
          2,
          3,
          0
        ],
        "trial_type": "survey-likert",
        "trial_index": 6,
        "time_elapsed": 127101,
        "internal_node_id": "0.0-6.0"
      }
    ]
  },
  "__v": 0
},
{
  "_id": {
    "$oid": "66614ed58c5e49b7d1493a0c"
  },
  "data": {
    "trials": [
      {
        "success": true,
        "timeout": false,
        "failed_images": [],
        "failed_audio": [],
        "failed_video": [],
        "trial_type": "preload",
        "trial_index": 0,
        "time_elapsed": 911,
        "internal_node_id": "0.0-0.0"
      },
      {
        "rt": 3887,
        "response": {
          "Q0": " I consent to participate"
        },
        "question_order": [
          0
        ],
        "trial_type": "survey-multi-choice",
        "trial_index": 1,
        "time_elapsed": 4799,
        "internal_node_id": "0.0-1.0"
      },
      {
        "view_history": [
          {
            "page_index": 0,
            "viewing_time": 2205
          },
          {
            "page_index": 1,
            "viewing_time": 4234
          }
        ],
        "rt": 6439,
        "trial_type": "instructions",
        "trial_index": 2,
        "time_elapsed": 11242,
        "internal_node_id": "0.0-2.0"
      },
      {
        "view_history": [
          {
            "page_index": 0,
            "viewing_time": 4978
          }
        ],
        "rt": 4978,
        "stimulus_type": "temp",
        "trial_type": "instructions",
        "trial_index": 3,
        "time_elapsed": 16220,
        "internal_node_id": "0.0-3.0"
      },
      {
        "rt": 1986,
        "stimulus": "Now the graph will be shown to you",
        "response": "v",
        "trial_type": "html-keyboard-response",
        "trial_index": 4,
        "time_elapsed": 18207,
        "internal_node_id": "0.0-4.0"
      },
      {
        "rt": 16169,
        "stimulus": "<div style='float: center;'><img src=../img/plots/continuous_0.389984422823742_.png width=\"1000\" ></img></div>",
        "response": "v",
        "stimulus_type": "../img/plots/continuous_0.389984422823742_.png",
        "trial_type": "html-keyboard-response",
        "trial_index": 5,
        "time_elapsed": 34377,
        "internal_node_id": "0.0-5.0"
      },
      {
        "rt": 27984,
        "response": {
          "Attention": 9,
          "Temperature": 6,
          "Freeze": 3,
          "Climate": 7
        },
        "question_order": [
          3,
          0,
          1,
          2
        ],
        "trial_type": "survey-likert",
        "trial_index": 6,
        "time_elapsed": 62363,
        "internal_node_id": "0.0-6.0"
      }
    ]
  },
  "__v": 0
},
{
  "_id": {
    "$oid": "66614edb8c5e49b7d1493a0e"
  },
  "data": {
    "trials": [
      {
        "success": true,
        "timeout": false,
        "failed_images": [],
        "failed_audio": [],
        "failed_video": [],
        "trial_type": "preload",
        "trial_index": 0,
        "time_elapsed": 183,
        "internal_node_id": "0.0-0.0"
      },
      {
        "rt": 2407,
        "response": {
          "Q0": " I consent to participate"
        },
        "question_order": [
          0
        ],
        "trial_type": "survey-multi-choice",
        "trial_index": 1,
        "time_elapsed": 2591,
        "internal_node_id": "0.0-1.0"
      },
      {
        "view_history": [
          {
            "page_index": 0,
            "viewing_time": 2534
          },
          {
            "page_index": 1,
            "viewing_time": 8999
          }
        ],
        "rt": 11533,
        "trial_type": "instructions",
        "trial_index": 2,
        "time_elapsed": 14126,
        "internal_node_id": "0.0-2.0"
      },
      {
        "view_history": [
          {
            "page_index": 0,
            "viewing_time": 13112
          }
        ],
        "rt": 13112,
        "stimulus_type": "freeze",
        "trial_type": "instructions",
        "trial_index": 3,
        "time_elapsed": 27238,
        "internal_node_id": "0.0-3.0"
      },
      {
        "rt": 6530,
        "stimulus": "Now the graph will be shown to you",
        "response": "v",
        "trial_type": "html-keyboard-response",
        "trial_index": 4,
        "time_elapsed": 33769,
        "internal_node_id": "0.0-4.0"
      },
      {
        "rt": 19439,
        "stimulus": "<div style='float: center;'><img src=../img/plots/binary_0.240944269450365_.png width=\"1000\"></img></div>",
        "response": "v",
        "stimulus_type": "../img/plots/binary_0.240944269450365_.png",
        "trial_type": "html-keyboard-response",
        "trial_index": 5,
        "time_elapsed": 53209,
        "internal_node_id": "0.0-5.0"
      },
      {
        "rt": 14719,
        "response": {
          "Temperature": 7,
          "Attention": 9,
          "Freeze": 7,
          "Climate": 8
        },
        "question_order": [
          0,
          3,
          1,
          2
        ],
        "trial_type": "survey-likert",
        "trial_index": 6,
        "time_elapsed": 67929,
        "internal_node_id": "0.0-6.0"
      }
    ]
  },
  "__v": 0
},
{
  "_id": {
    "$oid": "66614ee08c5e49b7d1493a10"
  },
  "data": {
    "trials": [
      {
        "success": true,
        "timeout": false,
        "failed_images": [],
        "failed_audio": [],
        "failed_video": [],
        "trial_type": "preload",
        "trial_index": 0,
        "time_elapsed": 1145,
        "internal_node_id": "0.0-0.0"
      },
      {
        "rt": 3589,
        "response": {
          "Q0": " I consent to participate"
        },
        "question_order": [
          0
        ],
        "trial_type": "survey-multi-choice",
        "trial_index": 1,
        "time_elapsed": 4735,
        "internal_node_id": "0.0-1.0"
      },
      {
        "view_history": [
          {
            "page_index": 0,
            "viewing_time": 2710
          },
          {
            "page_index": 1,
            "viewing_time": 4159
          }
        ],
        "rt": 6869,
        "trial_type": "instructions",
        "trial_index": 2,
        "time_elapsed": 11610,
        "internal_node_id": "0.0-2.0"
      },
      {
        "view_history": [
          {
            "page_index": 0,
            "viewing_time": 8052
          }
        ],
        "rt": 8052,
        "stimulus_type": "temp",
        "trial_type": "instructions",
        "trial_index": 3,
        "time_elapsed": 19663,
        "internal_node_id": "0.0-3.0"
      },
      {
        "rt": 3584,
        "stimulus": "Now the graph will be shown to you",
        "response": "v",
        "trial_type": "html-keyboard-response",
        "trial_index": 4,
        "time_elapsed": 23248,
        "internal_node_id": "0.0-4.0"
      },
      {
        "rt": 10235,
        "stimulus": "<div style='float: center;'><img src=../img/plots/continuous_0.332744361481887_.png width=\"1000\" ></img></div>",
        "response": "v",
        "stimulus_type": "../img/plots/continuous_0.332744361481887_.png",
        "trial_type": "html-keyboard-response",
        "trial_index": 5,
        "time_elapsed": 33485,
        "internal_node_id": "0.0-5.0"
      },
      {
        "rt": 14637,
        "response": {
          "Freeze": 9,
          "Temperature": 9,
          "Attention": 9,
          "Climate": 9
        },
        "question_order": [
          1,
          0,
          3,
          2
        ],
        "trial_type": "survey-likert",
        "trial_index": 6,
        "time_elapsed": 48126,
        "internal_node_id": "0.0-6.0"
      }
    ]
  },
  "__v": 0
},
{
  "_id": {
    "$oid": "66614ee28c5e49b7d1493a12"
  },
  "data": {
    "trials": [
      {
        "success": true,
        "timeout": false,
        "failed_images": [],
        "failed_audio": [],
        "failed_video": [],
        "trial_type": "preload",
        "trial_index": 0,
        "time_elapsed": 511,
        "internal_node_id": "0.0-0.0"
      },
      {
        "rt": 5964,
        "response": {
          "Q0": " I consent to participate"
        },
        "question_order": [
          0
        ],
        "trial_type": "survey-multi-choice",
        "trial_index": 1,
        "time_elapsed": 6478,
        "internal_node_id": "0.0-1.0"
      },
      {
        "view_history": [
          {
            "page_index": 0,
            "viewing_time": 5715
          },
          {
            "page_index": 1,
            "viewing_time": 5198
          }
        ],
        "rt": 10914,
        "trial_type": "instructions",
        "trial_index": 2,
        "time_elapsed": 17400,
        "internal_node_id": "0.0-2.0"
      },
      {
        "view_history": [
          {
            "page_index": 0,
            "viewing_time": 9913
          }
        ],
        "rt": 9914,
        "stimulus_type": "freeze",
        "trial_type": "instructions",
        "trial_index": 3,
        "time_elapsed": 27315,
        "internal_node_id": "0.0-3.0"
      },
      {
        "rt": 2506,
        "stimulus": "Now the graph will be shown to you",
        "response": "v",
        "trial_type": "html-keyboard-response",
        "trial_index": 4,
        "time_elapsed": 29825,
        "internal_node_id": "0.0-4.0"
      },
      {
        "rt": 10075,
        "stimulus": "<div style='float: center;'><img src=../img/plots/binary_0.576004537224472_.png width=\"1000\"></img></div>",
        "response": "v",
        "stimulus_type": "../img/plots/binary_0.576004537224472_.png",
        "trial_type": "html-keyboard-response",
        "trial_index": 5,
        "time_elapsed": 39902,
        "internal_node_id": "0.0-5.0"
      },
      {
        "rt": 19068,
        "response": {
          "Freeze": 9,
          "Temperature": 9,
          "Climate": 9,
          "Attention": 9
        },
        "question_order": [
          1,
          0,
          2,
          3
        ],
        "trial_type": "survey-likert",
        "trial_index": 6,
        "time_elapsed": 58978,
        "internal_node_id": "0.0-6.0"
      }
    ]
  },
  "__v": 0
},
{
  "_id": {
    "$oid": "66614ee48c5e49b7d1493a14"
  },
  "data": {
    "trials": [
      {
        "success": true,
        "timeout": false,
        "failed_images": [],
        "failed_audio": [],
        "failed_video": [],
        "trial_type": "preload",
        "trial_index": 0,
        "time_elapsed": 586,
        "internal_node_id": "0.0-0.0"
      },
      {
        "rt": 2547,
        "response": {
          "Q0": " I consent to participate"
        },
        "question_order": [
          0
        ],
        "trial_type": "survey-multi-choice",
        "trial_index": 1,
        "time_elapsed": 3134,
        "internal_node_id": "0.0-1.0"
      },
      {
        "view_history": [
          {
            "page_index": 0,
            "viewing_time": 2911
          },
          {
            "page_index": 1,
            "viewing_time": 4600
          }
        ],
        "rt": 7511,
        "trial_type": "instructions",
        "trial_index": 2,
        "time_elapsed": 10646,
        "internal_node_id": "0.0-2.0"
      },
      {
        "view_history": [
          {
            "page_index": 0,
            "viewing_time": 6231
          }
        ],
        "rt": 6231,
        "stimulus_type": "temp",
        "trial_type": "instructions",
        "trial_index": 3,
        "time_elapsed": 16877,
        "internal_node_id": "0.0-3.0"
      },
      {
        "rt": 3396,
        "stimulus": "Now the graph will be shown to you",
        "response": "v",
        "trial_type": "html-keyboard-response",
        "trial_index": 4,
        "time_elapsed": 20274,
        "internal_node_id": "0.0-4.0"
      },
      {
        "rt": 7239,
        "stimulus": "<div style='float: center;'><img src=../img/plots/continuous_0.634839480557545_.png width=\"1000\" ></img></div>",
        "response": "v",
        "stimulus_type": "../img/plots/continuous_0.634839480557545_.png",
        "trial_type": "html-keyboard-response",
        "trial_index": 5,
        "time_elapsed": 27513,
        "internal_node_id": "0.0-5.0"
      },
      {
        "rt": 19114,
        "response": {
          "Climate": 5,
          "Temperature": 6,
          "Attention": 9,
          "Freeze": 5
        },
        "question_order": [
          2,
          0,
          3,
          1
        ],
        "trial_type": "survey-likert",
        "trial_index": 6,
        "time_elapsed": 46629,
        "internal_node_id": "0.0-6.0"
      }
    ]
  },
  "__v": 0
},
{
  "_id": {
    "$oid": "66614ee88c5e49b7d1493a16"
  },
  "data": {
    "trials": [
      {
        "success": true,
        "timeout": false,
        "failed_images": [],
        "failed_audio": [],
        "failed_video": [],
        "trial_type": "preload",
        "trial_index": 0,
        "time_elapsed": 1429,
        "internal_node_id": "0.0-0.0"
      },
      {
        "rt": 6454,
        "response": {
          "Q0": " I consent to participate"
        },
        "question_order": [
          0
        ],
        "trial_type": "survey-multi-choice",
        "trial_index": 1,
        "time_elapsed": 7884,
        "internal_node_id": "0.0-1.0"
      },
      {
        "view_history": [
          {
            "page_index": 0,
            "viewing_time": 2577
          },
          {
            "page_index": 1,
            "viewing_time": 5633
          }
        ],
        "rt": 8210,
        "trial_type": "instructions",
        "trial_index": 2,
        "time_elapsed": 16099,
        "internal_node_id": "0.0-2.0"
      },
      {
        "view_history": [
          {
            "page_index": 0,
            "viewing_time": 9345
          }
        ],
        "rt": 9345,
        "stimulus_type": "freeze",
        "trial_type": "instructions",
        "trial_index": 3,
        "time_elapsed": 25446,
        "internal_node_id": "0.0-3.0"
      },
      {
        "rt": 2225,
        "stimulus": "Now the graph will be shown to you",
        "response": "v",
        "trial_type": "html-keyboard-response",
        "trial_index": 4,
        "time_elapsed": 27673,
        "internal_node_id": "0.0-4.0"
      },
      {
        "rt": 4751,
        "stimulus": "<div style='float: center;'><img src=../img/plots/binary_0.365376012418508_.png width=\"1000\"></img></div>",
        "response": "v",
        "stimulus_type": "../img/plots/binary_0.365376012418508_.png",
        "trial_type": "html-keyboard-response",
        "trial_index": 5,
        "time_elapsed": 32426,
        "internal_node_id": "0.0-5.0"
      },
      {
        "rt": 22043,
        "response": {
          "Attention": 9,
          "Climate": 8,
          "Freeze": 4,
          "Temperature": 9
        },
        "question_order": [
          3,
          2,
          1,
          0
        ],
        "trial_type": "survey-likert",
        "trial_index": 6,
        "time_elapsed": 54473,
        "internal_node_id": "0.0-6.0"
      }
    ]
  },
  "__v": 0
},
{
  "_id": {
    "$oid": "66614ee88c5e49b7d1493a18"
  },
  "data": {
    "trials": [
      {
        "success": true,
        "timeout": false,
        "failed_images": [],
        "failed_audio": [],
        "failed_video": [],
        "trial_type": "preload",
        "trial_index": 0,
        "time_elapsed": 1420,
        "internal_node_id": "0.0-0.0"
      },
      {
        "rt": 3339,
        "response": {
          "Q0": " I consent to participate"
        },
        "question_order": [
          0
        ],
        "trial_type": "survey-multi-choice",
        "trial_index": 1,
        "time_elapsed": 4761,
        "internal_node_id": "0.0-1.0"
      },
      {
        "view_history": [
          {
            "page_index": 0,
            "viewing_time": 2561
          },
          {
            "page_index": 1,
            "viewing_time": 6105
          }
        ],
        "rt": 8667,
        "trial_type": "instructions",
        "trial_index": 2,
        "time_elapsed": 13430,
        "internal_node_id": "0.0-2.0"
      },
      {
        "view_history": [
          {
            "page_index": 0,
            "viewing_time": 9885
          }
        ],
        "rt": 9886,
        "stimulus_type": "freeze",
        "trial_type": "instructions",
        "trial_index": 3,
        "time_elapsed": 23317,
        "internal_node_id": "0.0-3.0"
      },
      {
        "rt": 1976,
        "stimulus": "Now the graph will be shown to you",
        "response": "v",
        "trial_type": "html-keyboard-response",
        "trial_index": 4,
        "time_elapsed": 25294,
        "internal_node_id": "0.0-4.0"
      },
      {
        "rt": 5535,
        "stimulus": "<div style='float: center;'><img src=../img/plots/binary_0.240944269450365_.png width=\"1000\"></img></div>",
        "response": "v",
        "stimulus_type": "../img/plots/binary_0.240944269450365_.png",
        "trial_type": "html-keyboard-response",
        "trial_index": 5,
        "time_elapsed": 30831,
        "internal_node_id": "0.0-5.0"
      },
      {
        "rt": 13826,
        "response": {
          "Attention": 9,
          "Climate": 6,
          "Temperature": 5,
          "Freeze": 5
        },
        "question_order": [
          3,
          2,
          0,
          1
        ],
        "trial_type": "survey-likert",
        "trial_index": 6,
        "time_elapsed": 44659,
        "internal_node_id": "0.0-6.0"
      }
    ]
  },
  "__v": 0
},
{
  "_id": {
    "$oid": "66614eea8c5e49b7d1493a1a"
  },
  "data": {
    "trials": [
      {
        "success": true,
        "timeout": false,
        "failed_images": [],
        "failed_audio": [],
        "failed_video": [],
        "trial_type": "preload",
        "trial_index": 0,
        "time_elapsed": 2224,
        "internal_node_id": "0.0-0.0"
      },
      {
        "rt": 21516,
        "response": {
          "Q0": " I consent to participate"
        },
        "question_order": [
          0
        ],
        "trial_type": "survey-multi-choice",
        "trial_index": 1,
        "time_elapsed": 23742,
        "internal_node_id": "0.0-1.0"
      },
      {
        "view_history": [
          {
            "page_index": 0,
            "viewing_time": 6606
          },
          {
            "page_index": 1,
            "viewing_time": 13435
          }
        ],
        "rt": 20041,
        "trial_type": "instructions",
        "trial_index": 2,
        "time_elapsed": 43784,
        "internal_node_id": "0.0-2.0"
      },
      {
        "view_history": [
          {
            "page_index": 0,
            "viewing_time": 14317
          }
        ],
        "rt": 14317,
        "stimulus_type": "temp",
        "trial_type": "instructions",
        "trial_index": 3,
        "time_elapsed": 58102,
        "internal_node_id": "0.0-3.0"
      },
      {
        "rt": 3772,
        "stimulus": "Now the graph will be shown to you",
        "response": "v",
        "trial_type": "html-keyboard-response",
        "trial_index": 4,
        "time_elapsed": 61877,
        "internal_node_id": "0.0-4.0"
      },
      {
        "rt": 14366,
        "stimulus": "<div style='float: center;'><img src=../img/plots/continuous_0.479774992677482_.png width=\"1000\" ></img></div>",
        "response": "v",
        "stimulus_type": "../img/plots/continuous_0.479774992677482_.png",
        "trial_type": "html-keyboard-response",
        "trial_index": 5,
        "time_elapsed": 76244,
        "internal_node_id": "0.0-5.0"
      },
      {
        "rt": 22630,
        "response": {
          "Attention": 9,
          "Temperature": 2,
          "Climate": 2,
          "Freeze": 1
        },
        "question_order": [
          3,
          0,
          2,
          1
        ],
        "trial_type": "survey-likert",
        "trial_index": 6,
        "time_elapsed": 98878,
        "internal_node_id": "0.0-6.0"
      }
    ]
  },
  "__v": 0
},
{
  "_id": {
    "$oid": "66614eea8c5e49b7d1493a1c"
  },
  "data": {
    "trials": [
      {
        "success": true,
        "timeout": false,
        "failed_images": [],
        "failed_audio": [],
        "failed_video": [],
        "trial_type": "preload",
        "trial_index": 0,
        "time_elapsed": 1645,
        "internal_node_id": "0.0-0.0"
      },
      {
        "rt": 8592,
        "response": {
          "Q0": " I consent to participate"
        },
        "question_order": [
          0
        ],
        "trial_type": "survey-multi-choice",
        "trial_index": 1,
        "time_elapsed": 10239,
        "internal_node_id": "0.0-1.0"
      },
      {
        "view_history": [
          {
            "page_index": 0,
            "viewing_time": 2536
          },
          {
            "page_index": 1,
            "viewing_time": 4552
          }
        ],
        "rt": 7088,
        "trial_type": "instructions",
        "trial_index": 2,
        "time_elapsed": 17332,
        "internal_node_id": "0.0-2.0"
      },
      {
        "view_history": [
          {
            "page_index": 0,
            "viewing_time": 7655
          }
        ],
        "rt": 7656,
        "stimulus_type": "freeze",
        "trial_type": "instructions",
        "trial_index": 3,
        "time_elapsed": 24988,
        "internal_node_id": "0.0-3.0"
      },
      {
        "rt": 2497,
        "stimulus": "Now the graph will be shown to you",
        "response": "v",
        "trial_type": "html-keyboard-response",
        "trial_index": 4,
        "time_elapsed": 27485,
        "internal_node_id": "0.0-4.0"
      },
      {
        "rt": 6672,
        "stimulus": "<div style='float: center;'><img src=../img/plots/binary_0.668868682863686_.png width=\"1000\"></img></div>",
        "response": "v",
        "stimulus_type": "../img/plots/binary_0.668868682863686_.png",
        "trial_type": "html-keyboard-response",
        "trial_index": 5,
        "time_elapsed": 34158,
        "internal_node_id": "0.0-5.0"
      },
      {
        "rt": 13802,
        "response": {
          "Attention": 9,
          "Freeze": 9,
          "Temperature": 9,
          "Climate": 9
        },
        "question_order": [
          3,
          1,
          0,
          2
        ],
        "trial_type": "survey-likert",
        "trial_index": 6,
        "time_elapsed": 47963,
        "internal_node_id": "0.0-6.0"
      }
    ]
  },
  "__v": 0
},
{
  "_id": {
    "$oid": "66614ef28c5e49b7d1493a1e"
  },
  "data": {
    "trials": [
      {
        "success": true,
        "timeout": false,
        "failed_images": [],
        "failed_audio": [],
        "failed_video": [],
        "trial_type": "preload",
        "trial_index": 0,
        "time_elapsed": 7046,
        "internal_node_id": "0.0-0.0"
      },
      {
        "rt": 4504,
        "response": {
          "Q0": " I consent to participate"
        },
        "question_order": [
          0
        ],
        "trial_type": "survey-multi-choice",
        "trial_index": 1,
        "time_elapsed": 11552,
        "internal_node_id": "0.0-1.0"
      },
      {
        "view_history": [
          {
            "page_index": 0,
            "viewing_time": 4181
          },
          {
            "page_index": 1,
            "viewing_time": 6648
          }
        ],
        "rt": 10829,
        "trial_type": "instructions",
        "trial_index": 2,
        "time_elapsed": 22383,
        "internal_node_id": "0.0-2.0"
      },
      {
        "view_history": [
          {
            "page_index": 0,
            "viewing_time": 7343
          }
        ],
        "rt": 7343,
        "stimulus_type": "temp",
        "trial_type": "instructions",
        "trial_index": 3,
        "time_elapsed": 29727,
        "internal_node_id": "0.0-3.0"
      },
      {
        "rt": 4975,
        "stimulus": "Now the graph will be shown to you",
        "response": "v",
        "trial_type": "html-keyboard-response",
        "trial_index": 4,
        "time_elapsed": 34703,
        "internal_node_id": "0.0-4.0"
      },
      {
        "rt": 13069,
        "stimulus": "<div style='float: center;'><img src=../img/plots/continuous_0.479774992677482_.png width=\"1000\" ></img></div>",
        "response": "v",
        "stimulus_type": "../img/plots/continuous_0.479774992677482_.png",
        "trial_type": "html-keyboard-response",
        "trial_index": 5,
        "time_elapsed": 47774,
        "internal_node_id": "0.0-5.0"
      },
      {
        "rt": 18392,
        "response": {
          "Temperature": 7,
          "Climate": 8,
          "Attention": 9,
          "Freeze": 8
        },
        "question_order": [
          0,
          2,
          3,
          1
        ],
        "trial_type": "survey-likert",
        "trial_index": 6,
        "time_elapsed": 66167,
        "internal_node_id": "0.0-6.0"
      }
    ]
  },
  "__v": 0
},
{
  "_id": {
    "$oid": "66614ef28c5e49b7d1493a20"
  },
  "data": {
    "trials": [
      {
        "success": true,
        "timeout": false,
        "failed_images": [],
        "failed_audio": [],
        "failed_video": [],
        "trial_type": "preload",
        "trial_index": 0,
        "time_elapsed": 372,
        "internal_node_id": "0.0-0.0"
      },
      {
        "rt": 8580,
        "response": {
          "Q0": " I consent to participate"
        },
        "question_order": [
          0
        ],
        "trial_type": "survey-multi-choice",
        "trial_index": 1,
        "time_elapsed": 8954,
        "internal_node_id": "0.0-1.0"
      },
      {
        "view_history": [
          {
            "page_index": 0,
            "viewing_time": 1934
          },
          {
            "page_index": 1,
            "viewing_time": 10159
          }
        ],
        "rt": 12093,
        "trial_type": "instructions",
        "trial_index": 2,
        "time_elapsed": 21049,
        "internal_node_id": "0.0-2.0"
      },
      {
        "view_history": [
          {
            "page_index": 0,
            "viewing_time": 10634
          }
        ],
        "rt": 10634,
        "stimulus_type": "temp",
        "trial_type": "instructions",
        "trial_index": 3,
        "time_elapsed": 31684,
        "internal_node_id": "0.0-3.0"
      },
      {
        "rt": 1897,
        "stimulus": "Now the graph will be shown to you",
        "response": "v",
        "trial_type": "html-keyboard-response",
        "trial_index": 4,
        "time_elapsed": 33582,
        "internal_node_id": "0.0-4.0"
      },
      {
        "rt": 13076,
        "stimulus": "<div style='float: center;'><img src=../img/plots/continuous_0.542787755876701_.png width=\"1000\" ></img></div>",
        "response": "v",
        "stimulus_type": "../img/plots/continuous_0.542787755876701_.png",
        "trial_type": "html-keyboard-response",
        "trial_index": 5,
        "time_elapsed": 46659,
        "internal_node_id": "0.0-5.0"
      },
      {
        "rt": 21011,
        "response": {
          "Attention": 9,
          "Freeze": 2,
          "Climate": 8,
          "Temperature": 8
        },
        "question_order": [
          3,
          1,
          2,
          0
        ],
        "trial_type": "survey-likert",
        "trial_index": 6,
        "time_elapsed": 67672,
        "internal_node_id": "0.0-6.0"
      }
    ]
  },
  "__v": 0
},
{
  "_id": {
    "$oid": "66614ef58c5e49b7d1493a22"
  },
  "data": {
    "trials": [
      {
        "success": true,
        "timeout": false,
        "failed_images": [],
        "failed_audio": [],
        "failed_video": [],
        "trial_type": "preload",
        "trial_index": 0,
        "time_elapsed": 457,
        "internal_node_id": "0.0-0.0"
      },
      {
        "rt": 4909,
        "response": {
          "Q0": " I consent to participate"
        },
        "question_order": [
          0
        ],
        "trial_type": "survey-multi-choice",
        "trial_index": 1,
        "time_elapsed": 5367,
        "internal_node_id": "0.0-1.0"
      },
      {
        "view_history": [
          {
            "page_index": 0,
            "viewing_time": 4258
          },
          {
            "page_index": 1,
            "viewing_time": 7723
          }
        ],
        "rt": 11981,
        "trial_type": "instructions",
        "trial_index": 2,
        "time_elapsed": 17351,
        "internal_node_id": "0.0-2.0"
      },
      {
        "view_history": [
          {
            "page_index": 0,
            "viewing_time": 14877
          }
        ],
        "rt": 14878,
        "stimulus_type": "freeze",
        "trial_type": "instructions",
        "trial_index": 3,
        "time_elapsed": 32228,
        "internal_node_id": "0.0-3.0"
      },
      {
        "rt": 3117,
        "stimulus": "Now the graph will be shown to you",
        "response": "v",
        "trial_type": "html-keyboard-response",
        "trial_index": 4,
        "time_elapsed": 35346,
        "internal_node_id": "0.0-4.0"
      },
      {
        "rt": 26015,
        "stimulus": "<div style='float: center;'><img src=../img/plots/binary_0.576004537224472_.png width=\"1000\"></img></div>",
        "response": "v",
        "stimulus_type": "../img/plots/binary_0.576004537224472_.png",
        "trial_type": "html-keyboard-response",
        "trial_index": 5,
        "time_elapsed": 61362,
        "internal_node_id": "0.0-5.0"
      },
      {
        "rt": 32491,
        "response": {
          "Freeze": 8,
          "Temperature": 6,
          "Climate": 7,
          "Attention": 9
        },
        "question_order": [
          1,
          0,
          2,
          3
        ],
        "trial_type": "survey-likert",
        "trial_index": 6,
        "time_elapsed": 93855,
        "internal_node_id": "0.0-6.0"
      }
    ]
  },
  "__v": 0
},
{
  "_id": {
    "$oid": "66614ef78c5e49b7d1493a24"
  },
  "data": {
    "trials": [
      {
        "success": true,
        "timeout": false,
        "failed_images": [],
        "failed_audio": [],
        "failed_video": [],
        "trial_type": "preload",
        "trial_index": 0,
        "time_elapsed": 534,
        "internal_node_id": "0.0-0.0"
      },
      {
        "rt": 5259,
        "response": {
          "Q0": " I consent to participate"
        },
        "question_order": [
          0
        ],
        "trial_type": "survey-multi-choice",
        "trial_index": 1,
        "time_elapsed": 5796,
        "internal_node_id": "0.0-1.0"
      },
      {
        "view_history": [
          {
            "page_index": 0,
            "viewing_time": 3124
          },
          {
            "page_index": 1,
            "viewing_time": 10005
          }
        ],
        "rt": 13129,
        "trial_type": "instructions",
        "trial_index": 2,
        "time_elapsed": 18929,
        "internal_node_id": "0.0-2.0"
      },
      {
        "view_history": [
          {
            "page_index": 0,
            "viewing_time": 8573
          }
        ],
        "rt": 8574,
        "stimulus_type": "temp",
        "trial_type": "instructions",
        "trial_index": 3,
        "time_elapsed": 27504,
        "internal_node_id": "0.0-3.0"
      },
      {
        "rt": 5184,
        "stimulus": "Now the graph will be shown to you",
        "response": "v",
        "trial_type": "html-keyboard-response",
        "trial_index": 4,
        "time_elapsed": 32689,
        "internal_node_id": "0.0-4.0"
      },
      {
        "rt": 8056,
        "stimulus": "<div style='float: center;'><img src=../img/plots/continuous_0.556919429826064_.png width=\"1000\" ></img></div>",
        "response": "v",
        "stimulus_type": "../img/plots/continuous_0.556919429826064_.png",
        "trial_type": "html-keyboard-response",
        "trial_index": 5,
        "time_elapsed": 40747,
        "internal_node_id": "0.0-5.0"
      },
      {
        "rt": 24653,
        "response": {
          "Climate": 9,
          "Freeze": 9,
          "Attention": 9,
          "Temperature": 9
        },
        "question_order": [
          2,
          1,
          3,
          0
        ],
        "trial_type": "survey-likert",
        "trial_index": 6,
        "time_elapsed": 65403,
        "internal_node_id": "0.0-6.0"
      }
    ]
  },
  "__v": 0
},
{
  "_id": {
    "$oid": "66614ef78c5e49b7d1493a26"
  },
  "data": {
    "trials": [
      {
        "success": true,
        "timeout": false,
        "failed_images": [],
        "failed_audio": [],
        "failed_video": [],
        "trial_type": "preload",
        "trial_index": 0,
        "time_elapsed": 1096,
        "internal_node_id": "0.0-0.0"
      },
      {
        "rt": 7535,
        "response": {
          "Q0": " I consent to participate"
        },
        "question_order": [
          0
        ],
        "trial_type": "survey-multi-choice",
        "trial_index": 1,
        "time_elapsed": 8632,
        "internal_node_id": "0.0-1.0"
      },
      {
        "view_history": [
          {
            "page_index": 0,
            "viewing_time": 4829
          },
          {
            "page_index": 1,
            "viewing_time": 15934
          }
        ],
        "rt": 20764,
        "trial_type": "instructions",
        "trial_index": 2,
        "time_elapsed": 29398,
        "internal_node_id": "0.0-2.0"
      },
      {
        "view_history": [
          {
            "page_index": 0,
            "viewing_time": 19495
          }
        ],
        "rt": 19495,
        "stimulus_type": "temp",
        "trial_type": "instructions",
        "trial_index": 3,
        "time_elapsed": 48895,
        "internal_node_id": "0.0-3.0"
      },
      {
        "rt": 4869,
        "stimulus": "Now the graph will be shown to you",
        "response": "v",
        "trial_type": "html-keyboard-response",
        "trial_index": 4,
        "time_elapsed": 53765,
        "internal_node_id": "0.0-4.0"
      },
      {
        "rt": 25333,
        "stimulus": "<div style='float: center;'><img src=../img/plots/continuous_0.634839480557545_.png width=\"1000\" ></img></div>",
        "response": "v",
        "stimulus_type": "../img/plots/continuous_0.634839480557545_.png",
        "trial_type": "html-keyboard-response",
        "trial_index": 5,
        "time_elapsed": 79099,
        "internal_node_id": "0.0-5.0"
      },
      {
        "rt": 22105,
        "response": {
          "Temperature": 9,
          "Freeze": 9,
          "Attention": 9,
          "Climate": 9
        },
        "question_order": [
          0,
          1,
          3,
          2
        ],
        "trial_type": "survey-likert",
        "trial_index": 6,
        "time_elapsed": 101209,
        "internal_node_id": "0.0-6.0"
      }
    ]
  },
  "__v": 0
},
{
  "_id": {
    "$oid": "66614ef88c5e49b7d1493a28"
  },
  "data": {
    "trials": [
      {
        "success": true,
        "timeout": false,
        "failed_images": [],
        "failed_audio": [],
        "failed_video": [],
        "trial_type": "preload",
        "trial_index": 0,
        "time_elapsed": 392,
        "internal_node_id": "0.0-0.0"
      },
      {
        "rt": 9899,
        "response": {
          "Q0": " I consent to participate"
        },
        "question_order": [
          0
        ],
        "trial_type": "survey-multi-choice",
        "trial_index": 1,
        "time_elapsed": 10293,
        "internal_node_id": "0.0-1.0"
      },
      {
        "view_history": [
          {
            "page_index": 0,
            "viewing_time": 2311
          },
          {
            "page_index": 1,
            "viewing_time": 6727
          }
        ],
        "rt": 9039,
        "trial_type": "instructions",
        "trial_index": 2,
        "time_elapsed": 19339,
        "internal_node_id": "0.0-2.0"
      },
      {
        "view_history": [
          {
            "page_index": 0,
            "viewing_time": 11381
          }
        ],
        "rt": 11382,
        "stimulus_type": "temp",
        "trial_type": "instructions",
        "trial_index": 3,
        "time_elapsed": 30722,
        "internal_node_id": "0.0-3.0"
      },
      {
        "rt": 2909,
        "stimulus": "Now the graph will be shown to you",
        "response": "v",
        "trial_type": "html-keyboard-response",
        "trial_index": 4,
        "time_elapsed": 33633,
        "internal_node_id": "0.0-4.0"
      },
      {
        "rt": 10796,
        "stimulus": "<div style='float: center;'><img src=../img/plots/continuous_0.240944269450365_.png width=\"1000\" ></img></div>",
        "response": "v",
        "stimulus_type": "../img/plots/continuous_0.240944269450365_.png",
        "trial_type": "html-keyboard-response",
        "trial_index": 5,
        "time_elapsed": 44430,
        "internal_node_id": "0.0-5.0"
      },
      {
        "rt": 13194,
        "response": {
          "Attention": 9,
          "Freeze": 5,
          "Temperature": 5,
          "Climate": 5
        },
        "question_order": [
          3,
          1,
          0,
          2
        ],
        "trial_type": "survey-likert",
        "trial_index": 6,
        "time_elapsed": 57625,
        "internal_node_id": "0.0-6.0"
      }
    ]
  },
  "__v": 0
},
{
  "_id": {
    "$oid": "66614efc8c5e49b7d1493a2a"
  },
  "data": {
    "trials": [
      {
        "success": true,
        "timeout": false,
        "failed_images": [],
        "failed_audio": [],
        "failed_video": [],
        "trial_type": "preload",
        "trial_index": 0,
        "time_elapsed": 5058,
        "internal_node_id": "0.0-0.0"
      },
      {
        "rt": 3758,
        "response": {
          "Q0": " I consent to participate"
        },
        "question_order": [
          0
        ],
        "trial_type": "survey-multi-choice",
        "trial_index": 1,
        "time_elapsed": 8820,
        "internal_node_id": "0.0-1.0"
      },
      {
        "view_history": [
          {
            "page_index": 0,
            "viewing_time": 1794
          },
          {
            "page_index": 1,
            "viewing_time": 5998
          }
        ],
        "rt": 7792,
        "trial_type": "instructions",
        "trial_index": 2,
        "time_elapsed": 16616,
        "internal_node_id": "0.0-2.0"
      },
      {
        "view_history": [
          {
            "page_index": 0,
            "viewing_time": 4870
          }
        ],
        "rt": 4871,
        "stimulus_type": "temp",
        "trial_type": "instructions",
        "trial_index": 3,
        "time_elapsed": 21488,
        "internal_node_id": "0.0-3.0"
      },
      {
        "rt": 2310,
        "stimulus": "Now the graph will be shown to you",
        "response": "v",
        "trial_type": "html-keyboard-response",
        "trial_index": 4,
        "time_elapsed": 23800,
        "internal_node_id": "0.0-4.0"
      },
      {
        "rt": 8741,
        "stimulus": "<div style='float: center;'><img src=../img/plots/continuous_0.433806978380989_.png width=\"1000\" ></img></div>",
        "response": "v",
        "stimulus_type": "../img/plots/continuous_0.433806978380989_.png",
        "trial_type": "html-keyboard-response",
        "trial_index": 5,
        "time_elapsed": 32543,
        "internal_node_id": "0.0-5.0"
      },
      {
        "rt": 23453,
        "response": {
          "Climate": 7,
          "Freeze": 6,
          "Temperature": 7,
          "Attention": 9
        },
        "question_order": [
          2,
          1,
          0,
          3
        ],
        "trial_type": "survey-likert",
        "trial_index": 6,
        "time_elapsed": 56000,
        "internal_node_id": "0.0-6.0"
      }
    ]
  },
  "__v": 0
},
{
  "_id": {
    "$oid": "66614eff8c5e49b7d1493a2c"
  },
  "data": {
    "trials": [
      {
        "success": true,
        "timeout": false,
        "failed_images": [],
        "failed_audio": [],
        "failed_video": [],
        "trial_type": "preload",
        "trial_index": 0,
        "time_elapsed": 644,
        "internal_node_id": "0.0-0.0"
      },
      {
        "rt": 8761,
        "response": {
          "Q0": " I consent to participate"
        },
        "question_order": [
          0
        ],
        "trial_type": "survey-multi-choice",
        "trial_index": 1,
        "time_elapsed": 9406,
        "internal_node_id": "0.0-1.0"
      },
      {
        "view_history": [
          {
            "page_index": 0,
            "viewing_time": 18983
          },
          {
            "page_index": 1,
            "viewing_time": 34250
          }
        ],
        "rt": 53233,
        "trial_type": "instructions",
        "trial_index": 2,
        "time_elapsed": 62640,
        "internal_node_id": "0.0-2.0"
      },
      {
        "view_history": [
          {
            "page_index": 0,
            "viewing_time": 12021
          }
        ],
        "rt": 12021,
        "stimulus_type": "freeze",
        "trial_type": "instructions",
        "trial_index": 3,
        "time_elapsed": 74662,
        "internal_node_id": "0.0-3.0"
      },
      {
        "rt": 2860,
        "stimulus": "Now the graph will be shown to you",
        "response": "v",
        "trial_type": "html-keyboard-response",
        "trial_index": 4,
        "time_elapsed": 77522,
        "internal_node_id": "0.0-4.0"
      },
      {
        "rt": 9514,
        "stimulus": "<div style='float: center;'><img src=../img/plots/binary_0.154558810800488_.png width=\"1000\"></img></div>",
        "response": "v",
        "stimulus_type": "../img/plots/binary_0.154558810800488_.png",
        "trial_type": "html-keyboard-response",
        "trial_index": 5,
        "time_elapsed": 87036,
        "internal_node_id": "0.0-5.0"
      },
      {
        "rt": 24753,
        "response": {
          "Temperature": 1,
          "Climate": 1,
          "Freeze": 1,
          "Attention": 9
        },
        "question_order": [
          0,
          2,
          1,
          3
        ],
        "trial_type": "survey-likert",
        "trial_index": 6,
        "time_elapsed": 111790,
        "internal_node_id": "0.0-6.0"
      }
    ]
  },
  "__v": 0
},
{
  "_id": {
    "$oid": "66614f018c5e49b7d1493a2e"
  },
  "data": {
    "trials": [
      {
        "success": true,
        "timeout": false,
        "failed_images": [],
        "failed_audio": [],
        "failed_video": [],
        "trial_type": "preload",
        "trial_index": 0,
        "time_elapsed": 1320,
        "internal_node_id": "0.0-0.0"
      },
      {
        "rt": 3704,
        "response": {
          "Q0": " I consent to participate"
        },
        "question_order": [
          0
        ],
        "trial_type": "survey-multi-choice",
        "trial_index": 1,
        "time_elapsed": 5026,
        "internal_node_id": "0.0-1.0"
      },
      {
        "view_history": [
          {
            "page_index": 0,
            "viewing_time": 3031
          },
          {
            "page_index": 1,
            "viewing_time": 2643
          }
        ],
        "rt": 5675,
        "trial_type": "instructions",
        "trial_index": 2,
        "time_elapsed": 10704,
        "internal_node_id": "0.0-2.0"
      },
      {
        "view_history": [
          {
            "page_index": 0,
            "viewing_time": 12723
          }
        ],
        "rt": 12723,
        "stimulus_type": "temp",
        "trial_type": "instructions",
        "trial_index": 3,
        "time_elapsed": 23428,
        "internal_node_id": "0.0-3.0"
      },
      {
        "rt": 1905,
        "stimulus": "Now the graph will be shown to you",
        "response": "v",
        "trial_type": "html-keyboard-response",
        "trial_index": 4,
        "time_elapsed": 25334,
        "internal_node_id": "0.0-4.0"
      },
      {
        "rt": 5242,
        "stimulus": "<div style='float: center;'><img src=../img/plots/continuous_0.634839480557545_.png width=\"1000\" ></img></div>",
        "response": "v",
        "stimulus_type": "../img/plots/continuous_0.634839480557545_.png",
        "trial_type": "html-keyboard-response",
        "trial_index": 5,
        "time_elapsed": 30576,
        "internal_node_id": "0.0-5.0"
      },
      {
        "rt": 9779,
        "response": {
          "Temperature": 8,
          "Freeze": 8,
          "Climate": 9,
          "Attention": 9
        },
        "question_order": [
          0,
          1,
          2,
          3
        ],
        "trial_type": "survey-likert",
        "trial_index": 6,
        "time_elapsed": 40360,
        "internal_node_id": "0.0-6.0"
      }
    ]
  },
  "__v": 0
},
{
  "_id": {
    "$oid": "66614f018c5e49b7d1493a30"
  },
  "data": {
    "trials": [
      {
        "success": true,
        "timeout": false,
        "failed_images": [],
        "failed_audio": [],
        "failed_video": [],
        "trial_type": "preload",
        "trial_index": 0,
        "time_elapsed": 1245,
        "internal_node_id": "0.0-0.0"
      },
      {
        "rt": 3305,
        "response": {
          "Q0": " I consent to participate"
        },
        "question_order": [
          0
        ],
        "trial_type": "survey-multi-choice",
        "trial_index": 1,
        "time_elapsed": 4552,
        "internal_node_id": "0.0-1.0"
      },
      {
        "view_history": [
          {
            "page_index": 0,
            "viewing_time": 3238
          },
          {
            "page_index": 1,
            "viewing_time": 5874
          }
        ],
        "rt": 9112,
        "trial_type": "instructions",
        "trial_index": 2,
        "time_elapsed": 13670,
        "internal_node_id": "0.0-2.0"
      },
      {
        "view_history": [
          {
            "page_index": 0,
            "viewing_time": 10961
          }
        ],
        "rt": 10962,
        "stimulus_type": "freeze",
        "trial_type": "instructions",
        "trial_index": 3,
        "time_elapsed": 24632,
        "internal_node_id": "0.0-3.0"
      },
      {
        "rt": 2801,
        "stimulus": "Now the graph will be shown to you",
        "response": "v",
        "trial_type": "html-keyboard-response",
        "trial_index": 4,
        "time_elapsed": 27434,
        "internal_node_id": "0.0-4.0"
      },
      {
        "rt": 10375,
        "stimulus": "<div style='float: center;'><img src=../img/plots/binary_0.124623167861663_.png width=\"1000\"></img></div>",
        "response": "v",
        "stimulus_type": "../img/plots/binary_0.124623167861663_.png",
        "trial_type": "html-keyboard-response",
        "trial_index": 5,
        "time_elapsed": 37810,
        "internal_node_id": "0.0-5.0"
      },
      {
        "rt": 18992,
        "response": {
          "Climate": 8,
          "Temperature": 7,
          "Attention": 9,
          "Freeze": 7
        },
        "question_order": [
          2,
          0,
          3,
          1
        ],
        "trial_type": "survey-likert",
        "trial_index": 6,
        "time_elapsed": 56805,
        "internal_node_id": "0.0-6.0"
      }
    ]
  },
  "__v": 0
},
{
  "_id": {
    "$oid": "66614f038c5e49b7d1493a32"
  },
  "data": {
    "trials": [
      {
        "success": true,
        "timeout": false,
        "failed_images": [],
        "failed_audio": [],
        "failed_video": [],
        "trial_type": "preload",
        "trial_index": 0,
        "time_elapsed": 681,
        "internal_node_id": "0.0-0.0"
      },
      {
        "rt": 4627,
        "response": {
          "Q0": " I consent to participate"
        },
        "question_order": [
          0
        ],
        "trial_type": "survey-multi-choice",
        "trial_index": 1,
        "time_elapsed": 5311,
        "internal_node_id": "0.0-1.0"
      },
      {
        "view_history": [
          {
            "page_index": 0,
            "viewing_time": 8333
          },
          {
            "page_index": 1,
            "viewing_time": 8393
          }
        ],
        "rt": 16726,
        "trial_type": "instructions",
        "trial_index": 2,
        "time_elapsed": 22038,
        "internal_node_id": "0.0-2.0"
      },
      {
        "view_history": [
          {
            "page_index": 0,
            "viewing_time": 9563
          }
        ],
        "rt": 9564,
        "stimulus_type": "temp",
        "trial_type": "instructions",
        "trial_index": 3,
        "time_elapsed": 31602,
        "internal_node_id": "0.0-3.0"
      },
      {
        "rt": 2639,
        "stimulus": "Now the graph will be shown to you",
        "response": "v",
        "trial_type": "html-keyboard-response",
        "trial_index": 4,
        "time_elapsed": 34242,
        "internal_node_id": "0.0-4.0"
      },
      {
        "rt": 10533,
        "stimulus": "<div style='float: center;'><img src=../img/plots/continuous_0.542787755876701_.png width=\"1000\" ></img></div>",
        "response": "v",
        "stimulus_type": "../img/plots/continuous_0.542787755876701_.png",
        "trial_type": "html-keyboard-response",
        "trial_index": 5,
        "time_elapsed": 44776,
        "internal_node_id": "0.0-5.0"
      },
      {
        "rt": 20058,
        "response": {
          "Climate": 6,
          "Freeze": 6,
          "Temperature": 5,
          "Attention": 9
        },
        "question_order": [
          2,
          1,
          0,
          3
        ],
        "trial_type": "survey-likert",
        "trial_index": 6,
        "time_elapsed": 64835,
        "internal_node_id": "0.0-6.0"
      }
    ]
  },
  "__v": 0
},
{
  "_id": {
    "$oid": "66614f0a8c5e49b7d1493a34"
  },
  "data": {
    "trials": [
      {
        "success": true,
        "timeout": false,
        "failed_images": [],
        "failed_audio": [],
        "failed_video": [],
        "trial_type": "preload",
        "trial_index": 0,
        "time_elapsed": 968,
        "internal_node_id": "0.0-0.0"
      },
      {
        "rt": 12165,
        "response": {
          "Q0": " I consent to participate"
        },
        "question_order": [
          0
        ],
        "trial_type": "survey-multi-choice",
        "trial_index": 1,
        "time_elapsed": 13135,
        "internal_node_id": "0.0-1.0"
      },
      {
        "view_history": [
          {
            "page_index": 0,
            "viewing_time": 3192
          },
          {
            "page_index": 1,
            "viewing_time": 9229
          }
        ],
        "rt": 12422,
        "trial_type": "instructions",
        "trial_index": 2,
        "time_elapsed": 25559,
        "internal_node_id": "0.0-2.0"
      },
      {
        "view_history": [
          {
            "page_index": 0,
            "viewing_time": 10966
          }
        ],
        "rt": 10966,
        "stimulus_type": "freeze",
        "trial_type": "instructions",
        "trial_index": 3,
        "time_elapsed": 36525,
        "internal_node_id": "0.0-3.0"
      },
      {
        "rt": 3082,
        "stimulus": "Now the graph will be shown to you",
        "response": "v",
        "trial_type": "html-keyboard-response",
        "trial_index": 4,
        "time_elapsed": 39608,
        "internal_node_id": "0.0-4.0"
      },
      {
        "rt": 11265,
        "stimulus": "<div style='float: center;'><img src=../img/plots/binary_0.124623167861663_.png width=\"1000\"></img></div>",
        "response": "v",
        "stimulus_type": "../img/plots/binary_0.124623167861663_.png",
        "trial_type": "html-keyboard-response",
        "trial_index": 5,
        "time_elapsed": 50873,
        "internal_node_id": "0.0-5.0"
      },
      {
        "rt": 21981,
        "response": {
          "Climate": 7,
          "Temperature": 7,
          "Attention": 9,
          "Freeze": 7
        },
        "question_order": [
          2,
          0,
          3,
          1
        ],
        "trial_type": "survey-likert",
        "trial_index": 6,
        "time_elapsed": 72856,
        "internal_node_id": "0.0-6.0"
      }
    ]
  },
  "__v": 0
},
{
  "_id": {
    "$oid": "66614f0e8c5e49b7d1493a36"
  },
  "data": {
    "trials": [
      {
        "success": true,
        "timeout": false,
        "failed_images": [],
        "failed_audio": [],
        "failed_video": [],
        "trial_type": "preload",
        "trial_index": 0,
        "time_elapsed": 1127,
        "internal_node_id": "0.0-0.0"
      },
      {
        "rt": 11525,
        "response": {
          "Q0": " I consent to participate"
        },
        "question_order": [
          0
        ],
        "trial_type": "survey-multi-choice",
        "trial_index": 1,
        "time_elapsed": 12655,
        "internal_node_id": "0.0-1.0"
      },
      {
        "view_history": [
          {
            "page_index": 0,
            "viewing_time": 7045
          },
          {
            "page_index": 1,
            "viewing_time": 9360
          }
        ],
        "rt": 16405,
        "trial_type": "instructions",
        "trial_index": 2,
        "time_elapsed": 29067,
        "internal_node_id": "0.0-2.0"
      },
      {
        "view_history": [
          {
            "page_index": 0,
            "viewing_time": 18887
          }
        ],
        "rt": 18888,
        "stimulus_type": "freeze",
        "trial_type": "instructions",
        "trial_index": 3,
        "time_elapsed": 47955,
        "internal_node_id": "0.0-3.0"
      },
      {
        "rt": 5233,
        "stimulus": "Now the graph will be shown to you",
        "response": "v",
        "trial_type": "html-keyboard-response",
        "trial_index": 4,
        "time_elapsed": 53189,
        "internal_node_id": "0.0-4.0"
      },
      {
        "rt": 32449,
        "stimulus": "<div style='float: center;'><img src=../img/plots/binary_0.542787755876701_.png width=\"1000\"></img></div>",
        "response": "v",
        "stimulus_type": "../img/plots/binary_0.542787755876701_.png",
        "trial_type": "html-keyboard-response",
        "trial_index": 5,
        "time_elapsed": 85638,
        "internal_node_id": "0.0-5.0"
      },
      {
        "rt": 64064,
        "response": {
          "Climate": 8,
          "Attention": 9,
          "Temperature": 7,
          "Freeze": 7
        },
        "question_order": [
          2,
          3,
          0,
          1
        ],
        "trial_type": "survey-likert",
        "trial_index": 6,
        "time_elapsed": 149701,
        "internal_node_id": "0.0-6.0"
      }
    ]
  },
  "__v": 0
},
{
  "_id": {
    "$oid": "66614f0e8c5e49b7d1493a38"
  },
  "data": {
    "trials": [
      {
        "success": true,
        "timeout": false,
        "failed_images": [],
        "failed_audio": [],
        "failed_video": [],
        "trial_type": "preload",
        "trial_index": 0,
        "time_elapsed": 3798,
        "internal_node_id": "0.0-0.0"
      },
      {
        "rt": 3499,
        "response": {
          "Q0": " I consent to participate"
        },
        "question_order": [
          0
        ],
        "trial_type": "survey-multi-choice",
        "trial_index": 1,
        "time_elapsed": 7301,
        "internal_node_id": "0.0-1.0"
      },
      {
        "view_history": [
          {
            "page_index": 0,
            "viewing_time": 2502
          },
          {
            "page_index": 1,
            "viewing_time": 6242
          }
        ],
        "rt": 8745,
        "trial_type": "instructions",
        "trial_index": 2,
        "time_elapsed": 16056,
        "internal_node_id": "0.0-2.0"
      },
      {
        "view_history": [
          {
            "page_index": 0,
            "viewing_time": 8012
          }
        ],
        "rt": 8012,
        "stimulus_type": "freeze",
        "trial_type": "instructions",
        "trial_index": 3,
        "time_elapsed": 24069,
        "internal_node_id": "0.0-3.0"
      },
      {
        "rt": 3004,
        "stimulus": "Now the graph will be shown to you",
        "response": "v",
        "trial_type": "html-keyboard-response",
        "trial_index": 4,
        "time_elapsed": 27076,
        "internal_node_id": "0.0-4.0"
      },
      {
        "rt": 11608,
        "stimulus": "<div style='float: center;'><img src=../img/plots/binary_0.668868682863686_.png width=\"1000\"></img></div>",
        "response": "v",
        "stimulus_type": "../img/plots/binary_0.668868682863686_.png",
        "trial_type": "html-keyboard-response",
        "trial_index": 5,
        "time_elapsed": 38684,
        "internal_node_id": "0.0-5.0"
      },
      {
        "rt": 23259,
        "response": {
          "Temperature": 9,
          "Attention": 9,
          "Climate": 9,
          "Freeze": 9
        },
        "question_order": [
          0,
          3,
          2,
          1
        ],
        "trial_type": "survey-likert",
        "trial_index": 6,
        "time_elapsed": 61948,
        "internal_node_id": "0.0-6.0"
      }
    ]
  },
  "__v": 0
},
{
  "_id": {
    "$oid": "66614f158c5e49b7d1493a3a"
  },
  "data": {
    "trials": [
      {
        "success": true,
        "timeout": false,
        "failed_images": [],
        "failed_audio": [],
        "failed_video": [],
        "trial_type": "preload",
        "trial_index": 0,
        "time_elapsed": 608,
        "internal_node_id": "0.0-0.0"
      },
      {
        "rt": 28340,
        "response": {
          "Q0": " I consent to participate"
        },
        "question_order": [
          0
        ],
        "trial_type": "survey-multi-choice",
        "trial_index": 1,
        "time_elapsed": 28950,
        "internal_node_id": "0.0-1.0"
      },
      {
        "view_history": [
          {
            "page_index": 0,
            "viewing_time": 7967
          },
          {
            "page_index": 1,
            "viewing_time": 9799
          }
        ],
        "rt": 17766,
        "trial_type": "instructions",
        "trial_index": 2,
        "time_elapsed": 46717,
        "internal_node_id": "0.0-2.0"
      },
      {
        "view_history": [
          {
            "page_index": 0,
            "viewing_time": 5837
          }
        ],
        "rt": 5837,
        "stimulus_type": "freeze",
        "trial_type": "instructions",
        "trial_index": 3,
        "time_elapsed": 52555,
        "internal_node_id": "0.0-3.0"
      },
      {
        "rt": 4321,
        "stimulus": "Now the graph will be shown to you",
        "response": "v",
        "trial_type": "html-keyboard-response",
        "trial_index": 4,
        "time_elapsed": 56876,
        "internal_node_id": "0.0-4.0"
      },
      {
        "rt": 17626,
        "stimulus": "<div style='float: center;'><img src=../img/plots/binary_0.147948235627417_.png width=\"1000\"></img></div>",
        "response": "v",
        "stimulus_type": "../img/plots/binary_0.147948235627417_.png",
        "trial_type": "html-keyboard-response",
        "trial_index": 5,
        "time_elapsed": 74503,
        "internal_node_id": "0.0-5.0"
      },
      {
        "rt": 20854,
        "response": {
          "Freeze": 5,
          "Climate": 5,
          "Attention": 9,
          "Temperature": 5
        },
        "question_order": [
          1,
          2,
          3,
          0
        ],
        "trial_type": "survey-likert",
        "trial_index": 6,
        "time_elapsed": 95358,
        "internal_node_id": "0.0-6.0"
      }
    ]
  },
  "__v": 0
},
{
  "_id": {
    "$oid": "66614f158c5e49b7d1493a3c"
  },
  "data": {
    "trials": [
      {
        "success": true,
        "timeout": false,
        "failed_images": [],
        "failed_audio": [],
        "failed_video": [],
        "trial_type": "preload",
        "trial_index": 0,
        "time_elapsed": 1488,
        "internal_node_id": "0.0-0.0"
      },
      {
        "rt": 4364,
        "response": {
          "Q0": " I consent to participate"
        },
        "question_order": [
          0
        ],
        "trial_type": "survey-multi-choice",
        "trial_index": 1,
        "time_elapsed": 5856,
        "internal_node_id": "0.0-1.0"
      },
      {
        "view_history": [
          {
            "page_index": 0,
            "viewing_time": 3325
          },
          {
            "page_index": 1,
            "viewing_time": 7271
          }
        ],
        "rt": 10597,
        "trial_type": "instructions",
        "trial_index": 2,
        "time_elapsed": 16463,
        "internal_node_id": "0.0-2.0"
      },
      {
        "view_history": [
          {
            "page_index": 0,
            "viewing_time": 14865
          }
        ],
        "rt": 14865,
        "stimulus_type": "freeze",
        "trial_type": "instructions",
        "trial_index": 3,
        "time_elapsed": 31330,
        "internal_node_id": "0.0-3.0"
      },
      {
        "rt": 4098,
        "stimulus": "Now the graph will be shown to you",
        "response": "v",
        "trial_type": "html-keyboard-response",
        "trial_index": 4,
        "time_elapsed": 35430,
        "internal_node_id": "0.0-4.0"
      },
      {
        "rt": 21618,
        "stimulus": "<div style='float: center;'><img src=../img/plots/binary_0.124623167861663_.png width=\"1000\"></img></div>",
        "response": "v",
        "stimulus_type": "../img/plots/binary_0.124623167861663_.png",
        "trial_type": "html-keyboard-response",
        "trial_index": 5,
        "time_elapsed": 57049,
        "internal_node_id": "0.0-5.0"
      },
      {
        "rt": 27686,
        "response": {
          "Attention": 9,
          "Climate": 6,
          "Freeze": 6,
          "Temperature": 6
        },
        "question_order": [
          3,
          2,
          1,
          0
        ],
        "trial_type": "survey-likert",
        "trial_index": 6,
        "time_elapsed": 84742,
        "internal_node_id": "0.0-6.0"
      }
    ]
  },
  "__v": 0
},
{
  "_id": {
    "$oid": "66614f1b8c5e49b7d1493a3e"
  },
  "data": {
    "trials": [
      {
        "success": true,
        "timeout": false,
        "failed_images": [],
        "failed_audio": [],
        "failed_video": [],
        "trial_type": "preload",
        "trial_index": 0,
        "time_elapsed": 862,
        "internal_node_id": "0.0-0.0"
      },
      {
        "rt": 4377,
        "response": {
          "Q0": " I consent to participate"
        },
        "question_order": [
          0
        ],
        "trial_type": "survey-multi-choice",
        "trial_index": 1,
        "time_elapsed": 5239,
        "internal_node_id": "0.0-1.0"
      },
      {
        "view_history": [
          {
            "page_index": 0,
            "viewing_time": 4330
          },
          {
            "page_index": 1,
            "viewing_time": 6414
          }
        ],
        "rt": 10745,
        "trial_type": "instructions",
        "trial_index": 2,
        "time_elapsed": 15988,
        "internal_node_id": "0.0-2.0"
      },
      {
        "view_history": [
          {
            "page_index": 0,
            "viewing_time": 9918
          }
        ],
        "rt": 9919,
        "stimulus_type": "temp",
        "trial_type": "instructions",
        "trial_index": 3,
        "time_elapsed": 25906,
        "internal_node_id": "0.0-3.0"
      },
      {
        "rt": 3293,
        "stimulus": "Now the graph will be shown to you",
        "response": "v",
        "trial_type": "html-keyboard-response",
        "trial_index": 4,
        "time_elapsed": 29201,
        "internal_node_id": "0.0-4.0"
      },
      {
        "rt": 7163,
        "stimulus": "<div style='float: center;'><img src=../img/plots/continuous_0.634839480557545_.png width=\"1000\" ></img></div>",
        "response": "v",
        "stimulus_type": "../img/plots/continuous_0.634839480557545_.png",
        "trial_type": "html-keyboard-response",
        "trial_index": 5,
        "time_elapsed": 36365,
        "internal_node_id": "0.0-5.0"
      },
      {
        "rt": 21005,
        "response": {
          "Temperature": 7,
          "Climate": 7,
          "Freeze": 8,
          "Attention": 9
        },
        "question_order": [
          0,
          2,
          1,
          3
        ],
        "trial_type": "survey-likert",
        "trial_index": 6,
        "time_elapsed": 57373,
        "internal_node_id": "0.0-6.0"
      }
    ]
  },
  "__v": 0
},
{
  "_id": {
    "$oid": "66614f1c8c5e49b7d1493a40"
  },
  "data": {
    "trials": [
      {
        "success": true,
        "timeout": false,
        "failed_images": [],
        "failed_audio": [],
        "failed_video": [],
        "trial_type": "preload",
        "trial_index": 0,
        "time_elapsed": 1944,
        "internal_node_id": "0.0-0.0"
      },
      {
        "rt": 5941,
        "response": {
          "Q0": " I consent to participate"
        },
        "question_order": [
          0
        ],
        "trial_type": "survey-multi-choice",
        "trial_index": 1,
        "time_elapsed": 7888,
        "internal_node_id": "0.0-1.0"
      },
      {
        "view_history": [
          {
            "page_index": 0,
            "viewing_time": 5710
          },
          {
            "page_index": 1,
            "viewing_time": 17608
          }
        ],
        "rt": 23318,
        "trial_type": "instructions",
        "trial_index": 2,
        "time_elapsed": 31210,
        "internal_node_id": "0.0-2.0"
      },
      {
        "view_history": [
          {
