[{
  "_id": {
    "$oid": "668c22086c3fdf70df33e105"
  },
  "data": {
    "trials": [
      {
        "success": true,
        "timeout": false,
        "failed_images": [],
        "failed_audio": [],
        "failed_video": [],
        "trial_type": "preload",
        "trial_index": 0,
        "time_elapsed": 292,
        "internal_node_id": "0.0-0.0"
      },
      {
        "rt": 5455,
        "response": {
          "Q0": " I consent to participate"
        },
        "question_order": [
          0
        ],
        "trial_type": "survey-multi-choice",
        "trial_index": 1,
        "time_elapsed": 5749,
        "internal_node_id": "0.0-1.0"
      },
      {
        "view_history": [
          {
            "page_index": 0,
            "viewing_time": 1881
          },
          {
            "page_index": 1,
            "viewing_time": 7617
          }
        ],
        "rt": 9498,
        "trial_type": "instructions",
        "trial_index": 2,
        "time_elapsed": 15251,
        "internal_node_id": "0.0-2.0"
      },
      {
        "view_history": [
          {
            "page_index": 0,
            "viewing_time": 7881
          }
        ],
        "rt": 7881,
        "stimulus_type": "freeze",
        "trial_type": "instructions",
        "trial_index": 3,
        "time_elapsed": 23133,
        "internal_node_id": "0.0-3.0"
      },
      {
        "view_history": [
          {
            "page_index": 0,
            "viewing_time": 2994
          }
        ],
        "rt": 2994,
        "stimulus_type": "freeze",
        "trial_type": "instructions",
        "trial_index": 4,
        "time_elapsed": 26128,
        "internal_node_id": "0.0-4.0"
      },
      {
        "rt": 2371,
        "stimulus": "Now the graph will be shown to you. Again, your goal is to identify a <b>changepoint</b> (a year where you perceive difference in the pattern of the data before and after).",
        "response": "v",
        "trial_type": "html-keyboard-response",
        "trial_index": 5,
        "time_elapsed": 28501,
        "internal_node_id": "0.0-5.0"
      },
      {
        "rt": 12481,
        "stimulus": "<div style='float: center;'><img src=../img/plots/binary_0.230878804398407_.png width=\"1000\"></img></div>",
        "response": "v",
        "stimulus_type": "../img/plots/binary_0.230878804398407_.png",
        "trial_type": "html-keyboard-response",
        "trial_index": 6,
        "time_elapsed": 40984,
        "internal_node_id": "0.0-6.0"
      },
      {
        "rt": 2011,
        "response": {
          "Q0": " Yes"
        },
        "question_order": [
          0
        ],
        "trial_type": "survey-multi-choice",
        "trial_index": 7,
        "time_elapsed": 42998,
        "internal_node_id": "0.0-7.0"
      },
      {
        "rt": 8161,
        "stimulus": "<div style='float: left;'><img src=../img/plots/binary_0.230878804398407_.png width=\"1000\"></img></div>",
        "slider_start": 1940,
        "response": 1983,
        "stimulus_type": "../img/plots/binary_0.230878804398407_.png",
        "trial_type": "html-slider-response",
        "trial_index": 8,
        "time_elapsed": 51169,
        "internal_node_id": "0.0-8.0"
      },
      {
        "rt": 11213,
        "response": {
          "Climate": 7,
          "Freeze": 7,
          "Attention": 9,
          "Temperature": 7
        },
        "question_order": [
          2,
          1,
          3,
          0
        ],
        "trial_type": "survey-likert",
        "trial_index": 9,
        "time_elapsed": 62389,
        "internal_node_id": "0.0-9.0"
      }
    ]
  },
  "__v": 0
},
{
  "_id": {
    "$oid": "668c22106c3fdf70df33e107"
  },
  "data": {
    "trials": [
      {
        "success": true,
        "timeout": false,
        "failed_images": [],
        "failed_audio": [],
        "failed_video": [],
        "trial_type": "preload",
        "trial_index": 0,
        "time_elapsed": 517,
        "internal_node_id": "0.0-0.0"
      },
      {
        "rt": 11282,
        "response": {
          "Q0": " I consent to participate"
        },
        "question_order": [
          0
        ],
        "trial_type": "survey-multi-choice",
        "trial_index": 1,
        "time_elapsed": 11802,
        "internal_node_id": "0.0-1.0"
      },
      {
        "view_history": [
          {
            "page_index": 0,
            "viewing_time": 2065
          },
          {
            "page_index": 1,
            "viewing_time": 9324
          }
        ],
        "rt": 11390,
        "trial_type": "instructions",
        "trial_index": 2,
        "time_elapsed": 23198,
        "internal_node_id": "0.0-2.0"
      },
      {
        "view_history": [
          {
            "page_index": 0,
            "viewing_time": 7578
          }
        ],
        "rt": 7578,
        "stimulus_type": "temp",
        "trial_type": "instructions",
        "trial_index": 3,
        "time_elapsed": 30778,
        "internal_node_id": "0.0-3.0"
      },
      {
        "view_history": [
          {
            "page_index": 0,
            "viewing_time": 4718
          }
        ],
        "rt": 4718,
        "stimulus_type": "temp",
        "trial_type": "instructions",
        "trial_index": 4,
        "time_elapsed": 35497,
        "internal_node_id": "0.0-4.0"
      },
      {
        "rt": 5738,
        "stimulus": "Now the graph will be shown to you. Again, your goal is to identify a <b>changepoint</b> (a year where you perceive difference in the pattern of the data before and after).",
        "response": "v",
        "trial_type": "html-keyboard-response",
        "trial_index": 5,
        "time_elapsed": 41237,
        "internal_node_id": "0.0-5.0"
      },
      {
        "rt": 7623,
        "stimulus": "<div style='float: center;'><img src=../img/plots/continuous_0.44278258556149_.png width=\"1000\" ></img></div>",
        "response": "v",
        "stimulus_type": "../img/plots/continuous_0.44278258556149_.png",
        "trial_type": "html-keyboard-response",
        "trial_index": 6,
        "time_elapsed": 48861,
        "internal_node_id": "0.0-6.0"
      },
      {
        "rt": 4717,
        "response": {
          "Q0": " Not sure"
        },
        "question_order": [
          0
        ],
        "trial_type": "survey-multi-choice",
        "trial_index": 7,
        "time_elapsed": 53580,
        "internal_node_id": "0.0-7.0"
      },
      {
        "rt": 18197,
        "stimulus": "<div style='float: left;'><img src=../img/plots/continuous_0.44278258556149_.png width=\"1000\"></img></div>",
        "slider_start": 1940,
        "response": 1947,
        "stimulus_type": "../img/plots/continuous_0.44278258556149_.png",
        "trial_type": "html-slider-response",
        "trial_index": 8,
        "time_elapsed": 71786,
        "internal_node_id": "0.0-8.0"
      },
      {
        "rt": 13998,
        "response": {
          "Temperature": 6,
          "Freeze": 5,
          "Climate": 5,
          "Attention": 9
        },
        "question_order": [
          0,
          1,
          2,
          3
        ],
        "trial_type": "survey-likert",
        "trial_index": 9,
        "time_elapsed": 85790,
        "internal_node_id": "0.0-9.0"
      }
    ]
  },
  "__v": 0
},
{
  "_id": {
    "$oid": "668c22116c3fdf70df33e109"
  },
  "data": {
    "trials": [
      {
        "success": true,
        "timeout": false,
        "failed_images": [],
        "failed_audio": [],
        "failed_video": [],
        "trial_type": "preload",
        "trial_index": 0,
        "time_elapsed": 449,
        "internal_node_id": "0.0-0.0"
      },
      {
        "rt": 4007,
        "response": {
          "Q0": " I consent to participate"
        },
        "question_order": [
          0
        ],
        "trial_type": "survey-multi-choice",
        "trial_index": 1,
        "time_elapsed": 4456,
        "internal_node_id": "0.0-1.0"
      },
      {
        "view_history": [
          {
            "page_index": 0,
            "viewing_time": 3981
          },
          {
            "page_index": 1,
            "viewing_time": 5928
          }
        ],
        "rt": 9909,
        "trial_type": "instructions",
        "trial_index": 2,
        "time_elapsed": 14367,
        "internal_node_id": "0.0-2.0"
      },
      {
        "view_history": [
          {
            "page_index": 0,
            "viewing_time": 7486
          }
        ],
        "rt": 7486,
        "stimulus_type": "freeze",
        "trial_type": "instructions",
        "trial_index": 3,
        "time_elapsed": 21853,
        "internal_node_id": "0.0-3.0"
      },
      {
        "view_history": [
          {
            "page_index": 0,
            "viewing_time": 10116
          }
        ],
        "rt": 10116,
        "stimulus_type": "freeze",
        "trial_type": "instructions",
        "trial_index": 4,
        "time_elapsed": 31970,
        "internal_node_id": "0.0-4.0"
      },
      {
        "rt": 6366,
        "stimulus": "Now the graph will be shown to you. Again, your goal is to identify a <b>changepoint</b> (a year where you perceive difference in the pattern of the data before and after).",
        "response": "v",
        "trial_type": "html-keyboard-response",
        "trial_index": 5,
        "time_elapsed": 38336,
        "internal_node_id": "0.0-5.0"
      },
      {
        "rt": 20606,
        "stimulus": "<div style='float: center;'><img src=../img/plots/binary_0.659323805510727_.png width=\"1000\"></img></div>",
        "response": "v",
        "stimulus_type": "../img/plots/binary_0.659323805510727_.png",
        "trial_type": "html-keyboard-response",
        "trial_index": 6,
        "time_elapsed": 58942,
        "internal_node_id": "0.0-6.0"
      },
      {
        "rt": 3121,
        "response": {
          "Q0": " Yes"
        },
        "question_order": [
          0
        ],
        "trial_type": "survey-multi-choice",
        "trial_index": 7,
        "time_elapsed": 62063,
        "internal_node_id": "0.0-7.0"
      },
      {
        "rt": 9607,
        "stimulus": "<div style='float: left;'><img src=../img/plots/binary_0.659323805510727_.png width=\"1000\"></img></div>",
        "slider_start": 1940,
        "response": 1973,
        "stimulus_type": "../img/plots/binary_0.659323805510727_.png",
        "trial_type": "html-slider-response",
        "trial_index": 8,
        "time_elapsed": 71672,
        "internal_node_id": "0.0-8.0"
      },
      {
        "rt": 22528,
        "response": {
          "Climate": 9,
          "Freeze": 9,
          "Temperature": 9,
          "Attention": 9
        },
        "question_order": [
          2,
          1,
          0,
          3
        ],
        "trial_type": "survey-likert",
        "trial_index": 9,
        "time_elapsed": 94202,
        "internal_node_id": "0.0-9.0"
      }
    ]
  },
  "__v": 0
},
{
  "_id": {
    "$oid": "668c22276c3fdf70df33e10b"
  },
  "data": {
    "trials": [
      {
        "success": true,
        "timeout": false,
        "failed_images": [],
        "failed_audio": [],
        "failed_video": [],
        "trial_type": "preload",
        "trial_index": 0,
        "time_elapsed": 268,
        "internal_node_id": "0.0-0.0"
      },
      {
        "rt": 4221,
        "response": {
          "Q0": " I consent to participate"
        },
        "question_order": [
          0
        ],
        "trial_type": "survey-multi-choice",
        "trial_index": 1,
        "time_elapsed": 4490,
        "internal_node_id": "0.0-1.0"
      },
      {
        "view_history": [
          {
            "page_index": 0,
            "viewing_time": 2568
          },
          {
            "page_index": 1,
            "viewing_time": 6651
          }
        ],
        "rt": 9219,
        "trial_type": "instructions",
        "trial_index": 2,
        "time_elapsed": 13712,
        "internal_node_id": "0.0-2.0"
      },
      {
        "view_history": [
          {
            "page_index": 0,
            "viewing_time": 14214
          }
        ],
        "rt": 14214,
        "stimulus_type": "freeze",
        "trial_type": "instructions",
        "trial_index": 3,
        "time_elapsed": 27927,
        "internal_node_id": "0.0-3.0"
      },
      {
        "view_history": [
          {
            "page_index": 0,
            "viewing_time": 4384
          }
        ],
        "rt": 4384,
        "stimulus_type": "freeze",
        "trial_type": "instructions",
        "trial_index": 4,
        "time_elapsed": 32311,
        "internal_node_id": "0.0-4.0"
      },
      {
        "rt": 6103,
        "stimulus": "Now the graph will be shown to you. Again, your goal is to identify a <b>changepoint</b> (a year where you perceive difference in the pattern of the data before and after).",
        "response": "v",
        "trial_type": "html-keyboard-response",
        "trial_index": 5,
        "time_elapsed": 38415,
        "internal_node_id": "0.0-5.0"
      },
      {
        "rt": 12450,
        "stimulus": "<div style='float: center;'><img src=../img/plots/binary_0.44278258556149_.png width=\"1000\"></img></div>",
        "response": "v",
        "stimulus_type": "../img/plots/binary_0.44278258556149_.png",
        "trial_type": "html-keyboard-response",
        "trial_index": 6,
        "time_elapsed": 50867,
        "internal_node_id": "0.0-6.0"
      },
      {
        "rt": 3884,
        "response": {
          "Q0": " Yes"
        },
        "question_order": [
          0
        ],
        "trial_type": "survey-multi-choice",
        "trial_index": 7,
        "time_elapsed": 54752,
        "internal_node_id": "0.0-7.0"
      },
      {
        "rt": 14156,
        "stimulus": "<div style='float: left;'><img src=../img/plots/binary_0.44278258556149_.png width=\"1000\"></img></div>",
        "slider_start": 1940,
        "response": 1996,
        "stimulus_type": "../img/plots/binary_0.44278258556149_.png",
        "trial_type": "html-slider-response",
        "trial_index": 8,
        "time_elapsed": 68912,
        "internal_node_id": "0.0-8.0"
      },
      {
        "rt": 14464,
        "response": {
          "Temperature": 3,
          "Freeze": 3,
          "Attention": 9,
          "Climate": 5
        },
        "question_order": [
          0,
          1,
          3,
          2
        ],
        "trial_type": "survey-likert",
        "trial_index": 9,
        "time_elapsed": 83379,
        "internal_node_id": "0.0-9.0"
      }
    ]
  },
  "__v": 0
},
{
  "_id": {
    "$oid": "668c22436c3fdf70df33e10d"
  },
  "data": {
    "trials": [
      {
        "success": true,
        "timeout": false,
        "failed_images": [],
        "failed_audio": [],
        "failed_video": [],
        "trial_type": "preload",
        "trial_index": 0,
        "time_elapsed": 555,
        "internal_node_id": "0.0-0.0"
      },
      {
        "rt": 2948,
        "response": {
          "Q0": " I consent to participate"
        },
        "question_order": [
          0
        ],
        "trial_type": "survey-multi-choice",
        "trial_index": 1,
        "time_elapsed": 3504,
        "internal_node_id": "0.0-1.0"
      },
      {
        "view_history": [
          {
            "page_index": 0,
            "viewing_time": 2638
          },
          {
            "page_index": 1,
            "viewing_time": 4718
          }
        ],
        "rt": 7356,
        "trial_type": "instructions",
        "trial_index": 2,
        "time_elapsed": 10862,
        "internal_node_id": "0.0-2.0"
      },
      {
        "view_history": [
          {
            "page_index": 0,
            "viewing_time": 5731
          }
        ],
        "rt": 5732,
        "stimulus_type": "temp",
        "trial_type": "instructions",
        "trial_index": 3,
        "time_elapsed": 16594,
        "internal_node_id": "0.0-3.0"
      },
      {
        "view_history": [
          {
            "page_index": 0,
            "viewing_time": 6616
          }
        ],
        "rt": 6617,
        "stimulus_type": "temp",
        "trial_type": "instructions",
        "trial_index": 4,
        "time_elapsed": 23212,
        "internal_node_id": "0.0-4.0"
      },
      {
        "rt": 4530,
        "stimulus": "Now the graph will be shown to you. Again, your goal is to identify a <b>changepoint</b> (a year where you perceive difference in the pattern of the data before and after).",
        "response": "v",
        "trial_type": "html-keyboard-response",
        "trial_index": 5,
        "time_elapsed": 27742,
        "internal_node_id": "0.0-5.0"
      },
      {
        "rt": 11198,
        "stimulus": "<div style='float: center;'><img src=../img/plots/continuous_0.659323805510727_.png width=\"1000\" ></img></div>",
        "response": "v",
        "stimulus_type": "../img/plots/continuous_0.659323805510727_.png",
        "trial_type": "html-keyboard-response",
        "trial_index": 6,
        "time_elapsed": 38942,
        "internal_node_id": "0.0-6.0"
      },
      {
        "rt": 3208,
        "response": {
          "Q0": " No"
        },
        "question_order": [
          0
        ],
        "trial_type": "survey-multi-choice",
        "trial_index": 7,
        "time_elapsed": 42150,
        "internal_node_id": "0.0-7.0"
      },
      {
        "rt": 18812,
        "stimulus": "<div style='float: left;'><img src=../img/plots/continuous_0.659323805510727_.png width=\"1000\"></img></div>",
        "slider_start": 1940,
        "response": 1983,
        "stimulus_type": "../img/plots/continuous_0.659323805510727_.png",
        "trial_type": "html-slider-response",
        "trial_index": 8,
        "time_elapsed": 60964,
        "internal_node_id": "0.0-8.0"
      },
      {
        "rt": 16647,
        "response": {
          "Freeze": 6,
          "Attention": 9,
          "Climate": 6,
          "Temperature": 6
        },
        "question_order": [
          1,
          3,
          2,
          0
        ],
        "trial_type": "survey-likert",
        "trial_index": 9,
        "time_elapsed": 77613,
        "internal_node_id": "0.0-9.0"
      }
    ]
  },
  "__v": 0
},
{
  "_id": {
    "$oid": "668c22496c3fdf70df33e10f"
  },
  "data": {
    "trials": [
      {
        "success": true,
        "timeout": false,
        "failed_images": [],
        "failed_audio": [],
        "failed_video": [],
        "trial_type": "preload",
        "trial_index": 0,
        "time_elapsed": 6663,
        "internal_node_id": "0.0-0.0"
      },
      {
        "rt": 6446,
        "response": {
          "Q0": " I consent to participate"
        },
        "question_order": [
          0
        ],
        "trial_type": "survey-multi-choice",
        "trial_index": 1,
        "time_elapsed": 13113,
        "internal_node_id": "0.0-1.0"
      },
      {
        "view_history": [
          {
            "page_index": 0,
            "viewing_time": 4219
          },
          {
            "page_index": 1,
            "viewing_time": 10359
          }
        ],
        "rt": 14579,
        "trial_type": "instructions",
        "trial_index": 2,
        "time_elapsed": 27697,
        "internal_node_id": "0.0-2.0"
      },
      {
        "view_history": [
          {
            "page_index": 0,
            "viewing_time": 9080
          }
        ],
        "rt": 9080,
        "stimulus_type": "temp",
        "trial_type": "instructions",
        "trial_index": 3,
        "time_elapsed": 36778,
        "internal_node_id": "0.0-3.0"
      },
      {
        "view_history": [
          {
            "page_index": 0,
            "viewing_time": 5979
          }
        ],
        "rt": 5980,
        "stimulus_type": "temp",
        "trial_type": "instructions",
        "trial_index": 4,
        "time_elapsed": 42758,
        "internal_node_id": "0.0-4.0"
      },
      {
        "rt": 8991,
        "stimulus": "Now the graph will be shown to you. Again, your goal is to identify a <b>changepoint</b> (a year where you perceive difference in the pattern of the data before and after).",
        "response": "v",
        "trial_type": "html-keyboard-response",
        "trial_index": 5,
        "time_elapsed": 51751,
        "internal_node_id": "0.0-5.0"
      },
      {
        "rt": 26405,
        "stimulus": "<div style='float: center;'><img src=../img/plots/continuous_0.44278258556149_.png width=\"1000\" ></img></div>",
        "response": "v",
        "stimulus_type": "../img/plots/continuous_0.44278258556149_.png",
        "trial_type": "html-keyboard-response",
        "trial_index": 6,
        "time_elapsed": 78158,
        "internal_node_id": "0.0-6.0"
      },
      {
        "rt": 9178,
        "response": {
          "Q0": " Yes"
        },
        "question_order": [
          0
        ],
        "trial_type": "survey-multi-choice",
        "trial_index": 7,
        "time_elapsed": 87337,
        "internal_node_id": "0.0-7.0"
      },
      {
        "rt": 29095,
        "stimulus": "<div style='float: left;'><img src=../img/plots/continuous_0.44278258556149_.png width=\"1000\"></img></div>",
        "slider_start": 1940,
        "response": 2004,
        "stimulus_type": "../img/plots/continuous_0.44278258556149_.png",
        "trial_type": "html-slider-response",
        "trial_index": 8,
        "time_elapsed": 116440,
        "internal_node_id": "0.0-8.0"
      },
      {
        "rt": 29864,
        "response": {
          "Temperature": 3,
          "Climate": 4,
          "Freeze": 5,
          "Attention": 9
        },
        "question_order": [
          0,
          2,
          1,
          3
        ],
        "trial_type": "survey-likert",
        "trial_index": 9,
        "time_elapsed": 146309,
        "internal_node_id": "0.0-9.0"
      }
    ]
  },
  "__v": 0
},
{
  "_id": {
    "$oid": "668c22526c3fdf70df33e111"
  },
  "data": {
    "trials": [
      {
        "success": true,
        "timeout": false,
        "failed_images": [],
        "failed_audio": [],
        "failed_video": [],
        "trial_type": "preload",
        "trial_index": 0,
        "time_elapsed": 1096,
        "internal_node_id": "0.0-0.0"
      },
      {
        "rt": 4150,
        "response": {
          "Q0": " I consent to participate"
        },
        "question_order": [
          0
        ],
        "trial_type": "survey-multi-choice",
        "trial_index": 1,
        "time_elapsed": 5247,
        "internal_node_id": "0.0-1.0"
      },
      {
        "view_history": [
          {
            "page_index": 0,
            "viewing_time": 3491
          },
          {
            "page_index": 1,
            "viewing_time": 5540
          }
        ],
        "rt": 9031,
        "trial_type": "instructions",
        "trial_index": 2,
        "time_elapsed": 14281,
        "internal_node_id": "0.0-2.0"
      },
      {
        "view_history": [
          {
            "page_index": 0,
            "viewing_time": 2673
          }
        ],
        "rt": 2674,
        "stimulus_type": "temp",
        "trial_type": "instructions",
        "trial_index": 3,
        "time_elapsed": 16955,
        "internal_node_id": "0.0-3.0"
      },
      {
        "view_history": [
          {
            "page_index": 0,
            "viewing_time": 2743
          }
        ],
        "rt": 2743,
        "stimulus_type": "temp",
        "trial_type": "instructions",
        "trial_index": 4,
        "time_elapsed": 19699,
        "internal_node_id": "0.0-4.0"
      },
      {
        "rt": 2521,
        "stimulus": "Now the graph will be shown to you. Again, your goal is to identify a <b>changepoint</b> (a year where you perceive difference in the pattern of the data before and after).",
        "response": "v",
        "trial_type": "html-keyboard-response",
        "trial_index": 5,
        "time_elapsed": 22221,
        "internal_node_id": "0.0-5.0"
      },
      {
        "rt": 9303,
        "stimulus": "<div style='float: center;'><img src=../img/plots/continuous_0.659323805510727_.png width=\"1000\" ></img></div>",
        "response": "v",
        "stimulus_type": "../img/plots/continuous_0.659323805510727_.png",
        "trial_type": "html-keyboard-response",
        "trial_index": 6,
        "time_elapsed": 31525,
        "internal_node_id": "0.0-6.0"
      },
      {
        "rt": 2434,
        "response": {
          "Q0": " Yes"
        },
        "question_order": [
          0
        ],
        "trial_type": "survey-multi-choice",
        "trial_index": 7,
        "time_elapsed": 33959,
        "internal_node_id": "0.0-7.0"
      },
      {
        "rt": 15683,
        "stimulus": "<div style='float: left;'><img src=../img/plots/continuous_0.659323805510727_.png width=\"1000\"></img></div>",
        "slider_start": 1940,
        "response": 1972,
        "stimulus_type": "../img/plots/continuous_0.659323805510727_.png",
        "trial_type": "html-slider-response",
        "trial_index": 8,
        "time_elapsed": 49647,
        "internal_node_id": "0.0-8.0"
      },
      {
        "rt": 15496,
        "response": {
          "Climate": 8,
          "Attention": 9,
          "Temperature": 8,
          "Freeze": 9
        },
        "question_order": [
          2,
          3,
          0,
          1
        ],
        "trial_type": "survey-likert",
        "trial_index": 9,
        "time_elapsed": 65144,
        "internal_node_id": "0.0-9.0"
      }
    ]
  },
  "__v": 0
},
{
  "_id": {
    "$oid": "668c22576c3fdf70df33e113"
  },
  "data": {
    "trials": [
      {
        "success": true,
        "timeout": false,
        "failed_images": [],
        "failed_audio": [],
        "failed_video": [],
        "trial_type": "preload",
        "trial_index": 0,
        "time_elapsed": 160,
        "internal_node_id": "0.0-0.0"
      },
      {
        "rt": 3377,
        "response": {
          "Q0": " I consent to participate"
        },
        "question_order": [
          0
        ],
        "trial_type": "survey-multi-choice",
        "trial_index": 1,
        "time_elapsed": 3539,
        "internal_node_id": "0.0-1.0"
      },
      {
        "view_history": [
          {
            "page_index": 0,
            "viewing_time": 996
          },
          {
            "page_index": 1,
            "viewing_time": 2748
          }
        ],
        "rt": 3744,
        "trial_type": "instructions",
        "trial_index": 2,
        "time_elapsed": 7286,
        "internal_node_id": "0.0-2.0"
      },
      {
        "view_history": [
          {
            "page_index": 0,
            "viewing_time": 6229
          }
        ],
        "rt": 6229,
        "stimulus_type": "freeze",
        "trial_type": "instructions",
        "trial_index": 3,
        "time_elapsed": 13515,
        "internal_node_id": "0.0-3.0"
      },
      {
        "view_history": [
          {
            "page_index": 0,
            "viewing_time": 3100
          }
        ],
        "rt": 3101,
        "stimulus_type": "freeze",
        "trial_type": "instructions",
        "trial_index": 4,
        "time_elapsed": 16616,
        "internal_node_id": "0.0-4.0"
      },
      {
        "rt": 4310,
        "stimulus": "Now the graph will be shown to you. Again, your goal is to identify a <b>changepoint</b> (a year where you perceive difference in the pattern of the data before and after).",
        "response": "v",
        "trial_type": "html-keyboard-response",
        "trial_index": 5,
        "time_elapsed": 20926,
        "internal_node_id": "0.0-5.0"
      },
      {
        "rt": 4987,
        "stimulus": "<div style='float: center;'><img src=../img/plots/binary_0.230878804398407_.png width=\"1000\"></img></div>",
        "response": "v",
        "stimulus_type": "../img/plots/binary_0.230878804398407_.png",
        "trial_type": "html-keyboard-response",
        "trial_index": 6,
        "time_elapsed": 25914,
        "internal_node_id": "0.0-6.0"
      },
      {
        "rt": 2752,
        "response": {
          "Q0": " Not sure"
        },
        "question_order": [
          0
        ],
        "trial_type": "survey-multi-choice",
        "trial_index": 7,
        "time_elapsed": 28667,
        "internal_node_id": "0.0-7.0"
      },
      {
        "rt": 9919,
        "stimulus": "<div style='float: left;'><img src=../img/plots/binary_0.230878804398407_.png width=\"1000\"></img></div>",
        "slider_start": 1940,
        "response": 1955,
        "stimulus_type": "../img/plots/binary_0.230878804398407_.png",
        "trial_type": "html-slider-response",
        "trial_index": 8,
        "time_elapsed": 38590,
        "internal_node_id": "0.0-8.0"
      },
      {
        "rt": 13285,
        "response": {
          "Freeze": 4,
          "Temperature": 4,
          "Climate": 5,
          "Attention": 9
        },
        "question_order": [
          1,
          0,
          2,
          3
        ],
        "trial_type": "survey-likert",
        "trial_index": 9,
        "time_elapsed": 51877,
        "internal_node_id": "0.0-9.0"
      }
    ]
  },
  "__v": 0
},
{
  "_id": {
    "$oid": "668c225e6c3fdf70df33e115"
  },
  "data": {
    "trials": [
      {
        "success": true,
        "timeout": false,
        "failed_images": [],
        "failed_audio": [],
        "failed_video": [],
        "trial_type": "preload",
        "trial_index": 0,
        "time_elapsed": 381,
        "internal_node_id": "0.0-0.0"
      },
      {
        "rt": 3082,
        "response": {
          "Q0": " I consent to participate"
        },
        "question_order": [
          0
        ],
        "trial_type": "survey-multi-choice",
        "trial_index": 1,
        "time_elapsed": 3464,
        "internal_node_id": "0.0-1.0"
      },
      {
        "view_history": [
          {
            "page_index": 0,
            "viewing_time": 4236
          },
          {
            "page_index": 1,
            "viewing_time": 8442
          }
        ],
        "rt": 12678,
        "trial_type": "instructions",
        "trial_index": 2,
        "time_elapsed": 16143,
        "internal_node_id": "0.0-2.0"
      },
      {
        "view_history": [
          {
            "page_index": 0,
            "viewing_time": 5586
          }
        ],
        "rt": 5586,
        "stimulus_type": "temp",
        "trial_type": "instructions",
        "trial_index": 3,
        "time_elapsed": 21729,
        "internal_node_id": "0.0-3.0"
      },
      {
        "view_history": [
          {
            "page_index": 0,
            "viewing_time": 7386
          }
        ],
        "rt": 7386,
        "stimulus_type": "temp",
        "trial_type": "instructions",
        "trial_index": 4,
        "time_elapsed": 29116,
        "internal_node_id": "0.0-4.0"
      },
      {
        "rt": 5416,
        "stimulus": "Now the graph will be shown to you. Again, your goal is to identify a <b>changepoint</b> (a year where you perceive difference in the pattern of the data before and after).",
        "response": "v",
        "trial_type": "html-keyboard-response",
        "trial_index": 5,
        "time_elapsed": 34533,
        "internal_node_id": "0.0-5.0"
      },
      {
        "rt": 16196,
        "stimulus": "<div style='float: center;'><img src=../img/plots/continuous_0.659323805510727_.png width=\"1000\" ></img></div>",
        "response": "v",
        "stimulus_type": "../img/plots/continuous_0.659323805510727_.png",
        "trial_type": "html-keyboard-response",
        "trial_index": 6,
        "time_elapsed": 50730,
        "internal_node_id": "0.0-6.0"
      },
      {
        "rt": 3085,
        "response": {
          "Q0": " Yes"
        },
        "question_order": [
          0
        ],
        "trial_type": "survey-multi-choice",
        "trial_index": 7,
        "time_elapsed": 53816,
        "internal_node_id": "0.0-7.0"
      },
      {
        "rt": 12829,
        "stimulus": "<div style='float: left;'><img src=../img/plots/continuous_0.659323805510727_.png width=\"1000\"></img></div>",
        "slider_start": 1940,
        "response": 1970,
        "stimulus_type": "../img/plots/continuous_0.659323805510727_.png",
        "trial_type": "html-slider-response",
        "trial_index": 8,
        "time_elapsed": 66647,
        "internal_node_id": "0.0-8.0"
      },
      {
        "rt": 24074,
        "response": {
          "Attention": 9,
          "Freeze": 5,
          "Climate": 6,
          "Temperature": 6
        },
        "question_order": [
          3,
          1,
          2,
          0
        ],
        "trial_type": "survey-likert",
        "trial_index": 9,
        "time_elapsed": 90722,
        "internal_node_id": "0.0-9.0"
      }
    ]
  },
  "__v": 0
},
{
  "_id": {
    "$oid": "668c22656c3fdf70df33e117"
  },
  "data": {
    "trials": [
      {
        "success": true,
        "timeout": false,
        "failed_images": [],
        "failed_audio": [],
        "failed_video": [],
        "trial_type": "preload",
        "trial_index": 0,
        "time_elapsed": 275,
        "internal_node_id": "0.0-0.0"
      },
      {
        "rt": 2821,
        "response": {
          "Q0": " I consent to participate"
        },
        "question_order": [
          0
        ],
        "trial_type": "survey-multi-choice",
        "trial_index": 1,
        "time_elapsed": 3097,
        "internal_node_id": "0.0-1.0"
      },
      {
        "view_history": [
          {
            "page_index": 0,
            "viewing_time": 1831
          },
          {
            "page_index": 1,
            "viewing_time": 4591
          }
        ],
        "rt": 6422,
        "trial_type": "instructions",
        "trial_index": 2,
        "time_elapsed": 9520,
        "internal_node_id": "0.0-2.0"
      },
      {
        "view_history": [
          {
            "page_index": 0,
            "viewing_time": 2227
          }
        ],
        "rt": 2227,
        "stimulus_type": "temp",
        "trial_type": "instructions",
        "trial_index": 3,
        "time_elapsed": 11748,
        "internal_node_id": "0.0-3.0"
      },
      {
        "view_history": [
          {
            "page_index": 0,
            "viewing_time": 2971
          }
        ],
        "rt": 2971,
        "stimulus_type": "temp",
        "trial_type": "instructions",
        "trial_index": 4,
        "time_elapsed": 14720,
        "internal_node_id": "0.0-4.0"
      },
      {
        "rt": 3608,
        "stimulus": "Now the graph will be shown to you. Again, your goal is to identify a <b>changepoint</b> (a year where you perceive difference in the pattern of the data before and after).",
        "response": "v",
        "trial_type": "html-keyboard-response",
        "trial_index": 5,
        "time_elapsed": 18328,
        "internal_node_id": "0.0-5.0"
      },
      {
        "rt": 11342,
        "stimulus": "<div style='float: center;'><img src=../img/plots/continuous_0.659323805510727_.png width=\"1000\" ></img></div>",
        "response": "v",
        "stimulus_type": "../img/plots/continuous_0.659323805510727_.png",
        "trial_type": "html-keyboard-response",
        "trial_index": 6,
        "time_elapsed": 29670,
        "internal_node_id": "0.0-6.0"
      },
      {
        "rt": 1856,
        "response": {
          "Q0": " Yes"
        },
        "question_order": [
          0
        ],
        "trial_type": "survey-multi-choice",
        "trial_index": 7,
        "time_elapsed": 31527,
        "internal_node_id": "0.0-7.0"
      },
      {
        "rt": 7104,
        "stimulus": "<div style='float: left;'><img src=../img/plots/continuous_0.659323805510727_.png width=\"1000\"></img></div>",
        "slider_start": 1940,
        "response": 1980,
        "stimulus_type": "../img/plots/continuous_0.659323805510727_.png",
        "trial_type": "html-slider-response",
        "trial_index": 8,
        "time_elapsed": 38633,
        "internal_node_id": "0.0-8.0"
      },
      {
        "rt": 13399,
        "response": {
          "Temperature": 6,
          "Freeze": 5,
          "Climate": 8,
          "Attention": 9
        },
        "question_order": [
          0,
          1,
          2,
          3
        ],
        "trial_type": "survey-likert",
        "trial_index": 9,
        "time_elapsed": 52033,
        "internal_node_id": "0.0-9.0"
      }
    ]
  },
  "__v": 0
},
{
  "_id": {
    "$oid": "668c22686c3fdf70df33e119"
  },
  "data": {
    "trials": [
      {
        "success": true,
        "timeout": false,
        "failed_images": [],
        "failed_audio": [],
        "failed_video": [],
        "trial_type": "preload",
        "trial_index": 0,
        "time_elapsed": 548,
        "internal_node_id": "0.0-0.0"
      },
      {
        "rt": 4201,
        "response": {
          "Q0": " I consent to participate"
        },
        "question_order": [
          0
        ],
        "trial_type": "survey-multi-choice",
        "trial_index": 1,
        "time_elapsed": 4752,
        "internal_node_id": "0.0-1.0"
      },
      {
        "view_history": [
          {
            "page_index": 0,
            "viewing_time": 2228
          },
          {
            "page_index": 1,
            "viewing_time": 4400
          }
        ],
        "rt": 6628,
        "trial_type": "instructions",
        "trial_index": 2,
        "time_elapsed": 11384,
        "internal_node_id": "0.0-2.0"
      },
      {
        "view_history": [
          {
            "page_index": 0,
            "viewing_time": 4250
          }
        ],
        "rt": 4250,
        "stimulus_type": "temp",
        "trial_type": "instructions",
        "trial_index": 3,
        "time_elapsed": 15634,
        "internal_node_id": "0.0-3.0"
      },
      {
        "view_history": [
          {
            "page_index": 0,
            "viewing_time": 3701
          }
        ],
        "rt": 3701,
        "stimulus_type": "temp",
        "trial_type": "instructions",
        "trial_index": 4,
        "time_elapsed": 19336,
        "internal_node_id": "0.0-4.0"
      },
      {
        "rt": 3769,
        "stimulus": "Now the graph will be shown to you. Again, your goal is to identify a <b>changepoint</b> (a year where you perceive difference in the pattern of the data before and after).",
        "response": "v",
        "trial_type": "html-keyboard-response",
        "trial_index": 5,
        "time_elapsed": 23106,
        "internal_node_id": "0.0-5.0"
      },
      {
        "rt": 6382,
        "stimulus": "<div style='float: center;'><img src=../img/plots/continuous_0.44278258556149_.png width=\"1000\" ></img></div>",
        "response": "v",
        "stimulus_type": "../img/plots/continuous_0.44278258556149_.png",
        "trial_type": "html-keyboard-response",
        "trial_index": 6,
        "time_elapsed": 29489,
        "internal_node_id": "0.0-6.0"
      },
      {
        "rt": 3795,
        "response": {
          "Q0": " No"
        },
        "question_order": [
          0
        ],
        "trial_type": "survey-multi-choice",
        "trial_index": 7,
        "time_elapsed": 33285,
        "internal_node_id": "0.0-7.0"
      },
      {
        "rt": 11560,
        "stimulus": "<div style='float: left;'><img src=../img/plots/continuous_0.44278258556149_.png width=\"1000\"></img></div>",
        "slider_start": 1940,
        "response": 2008,
        "stimulus_type": "../img/plots/continuous_0.44278258556149_.png",
        "trial_type": "html-slider-response",
        "trial_index": 8,
        "time_elapsed": 44851,
        "internal_node_id": "0.0-8.0"
      },
      {
        "rt": 19301,
        "response": {
          "Freeze": 7,
          "Attention": 9,
          "Climate": 9,
          "Temperature": 8
        },
        "question_order": [
          1,
          3,
          2,
          0
        ],
        "trial_type": "survey-likert",
        "trial_index": 9,
        "time_elapsed": 64154,
        "internal_node_id": "0.0-9.0"
      }
    ]
  },
  "__v": 0
},
{
  "_id": {
    "$oid": "668c22696c3fdf70df33e11b"
  },
  "data": {
    "trials": [
      {
        "success": true,
        "timeout": false,
        "failed_images": [],
        "failed_audio": [],
        "failed_video": [],
        "trial_type": "preload",
        "trial_index": 0,
        "time_elapsed": 184,
        "internal_node_id": "0.0-0.0"
      },
      {
        "rt": 5895,
        "response": {
          "Q0": " I consent to participate"
        },
        "question_order": [
          0
        ],
        "trial_type": "survey-multi-choice",
        "trial_index": 1,
        "time_elapsed": 6081,
        "internal_node_id": "0.0-1.0"
      },
      {
        "view_history": [
          {
            "page_index": 0,
            "viewing_time": 3421
          },
          {
            "page_index": 1,
            "viewing_time": 7648
          }
        ],
        "rt": 11070,
        "trial_type": "instructions",
        "trial_index": 2,
        "time_elapsed": 17153,
        "internal_node_id": "0.0-2.0"
      },
      {
        "view_history": [
          {
            "page_index": 0,
            "viewing_time": 10071
          }
        ],
        "rt": 10071,
        "stimulus_type": "freeze",
        "trial_type": "instructions",
        "trial_index": 3,
        "time_elapsed": 27225,
        "internal_node_id": "0.0-3.0"
      },
      {
        "view_history": [
          {
            "page_index": 0,
            "viewing_time": 7167
          }
        ],
        "rt": 7168,
        "stimulus_type": "freeze",
        "trial_type": "instructions",
        "trial_index": 4,
        "time_elapsed": 34393,
        "internal_node_id": "0.0-4.0"
      },
      {
        "rt": 6749,
        "stimulus": "Now the graph will be shown to you. Again, your goal is to identify a <b>changepoint</b> (a year where you perceive difference in the pattern of the data before and after).",
        "response": "v",
        "trial_type": "html-keyboard-response",
        "trial_index": 5,
        "time_elapsed": 41143,
        "internal_node_id": "0.0-5.0"
      },
      {
        "rt": 15039,
        "stimulus": "<div style='float: center;'><img src=../img/plots/binary_0.44278258556149_.png width=\"1000\"></img></div>",
        "response": "v",
        "stimulus_type": "../img/plots/binary_0.44278258556149_.png",
        "trial_type": "html-keyboard-response",
        "trial_index": 6,
        "time_elapsed": 56183,
        "internal_node_id": "0.0-6.0"
      },
      {
        "rt": 2866,
        "response": {
          "Q0": " Yes"
        },
        "question_order": [
          0
        ],
        "trial_type": "survey-multi-choice",
        "trial_index": 7,
        "time_elapsed": 59050,
        "internal_node_id": "0.0-7.0"
      },
      {
        "rt": 20347,
        "stimulus": "<div style='float: left;'><img src=../img/plots/binary_0.44278258556149_.png width=\"1000\"></img></div>",
        "slider_start": 1940,
        "response": 1973,
        "stimulus_type": "../img/plots/binary_0.44278258556149_.png",
        "trial_type": "html-slider-response",
        "trial_index": 8,
        "time_elapsed": 79402,
        "internal_node_id": "0.0-8.0"
      },
      {
        "rt": 18740,
        "response": {
          "Freeze": 8,
          "Temperature": 8,
          "Climate": 8,
          "Attention": 9
        },
        "question_order": [
          1,
          0,
          2,
          3
        ],
        "trial_type": "survey-likert",
        "trial_index": 9,
        "time_elapsed": 98146,
        "internal_node_id": "0.0-9.0"
      }
    ]
  },
  "__v": 0
},
{
  "_id": {
    "$oid": "668c22776c3fdf70df33e11d"
  },
  "data": {
    "trials": [
      {
        "success": true,
        "timeout": false,
        "failed_images": [],
        "failed_audio": [],
        "failed_video": [],
        "trial_type": "preload",
        "trial_index": 0,
        "time_elapsed": 552,
        "internal_node_id": "0.0-0.0"
      },
      {
        "rt": 6293,
        "response": {
          "Q0": " I consent to participate"
        },
        "question_order": [
          0
        ],
        "trial_type": "survey-multi-choice",
        "trial_index": 1,
        "time_elapsed": 6852,
        "internal_node_id": "0.0-1.0"
      },
      {
        "view_history": [
          {
            "page_index": 0,
            "viewing_time": 2296
          },
          {
            "page_index": 1,
            "viewing_time": 3232
          }
        ],
        "rt": 5528,
        "trial_type": "instructions",
        "trial_index": 2,
        "time_elapsed": 12383,
        "internal_node_id": "0.0-2.0"
      },
      {
        "view_history": [
          {
            "page_index": 0,
            "viewing_time": 7445
          }
        ],
        "rt": 7445,
        "stimulus_type": "freeze",
        "trial_type": "instructions",
        "trial_index": 3,
        "time_elapsed": 19829,
        "internal_node_id": "0.0-3.0"
      },
      {
        "view_history": [
          {
            "page_index": 0,
            "viewing_time": 4693
          }
        ],
        "rt": 4694,
        "stimulus_type": "freeze",
        "trial_type": "instructions",
        "trial_index": 4,
        "time_elapsed": 24523,
        "internal_node_id": "0.0-4.0"
      },
      {
        "rt": 4290,
        "stimulus": "Now the graph will be shown to you. Again, your goal is to identify a <b>changepoint</b> (a year where you perceive difference in the pattern of the data before and after).",
        "response": "v",
        "trial_type": "html-keyboard-response",
        "trial_index": 5,
        "time_elapsed": 28815,
        "internal_node_id": "0.0-5.0"
      },
      {
        "rt": 7640,
        "stimulus": "<div style='float: center;'><img src=../img/plots/binary_0.44278258556149_.png width=\"1000\"></img></div>",
        "response": "v",
        "stimulus_type": "../img/plots/binary_0.44278258556149_.png",
        "trial_type": "html-keyboard-response",
        "trial_index": 6,
        "time_elapsed": 36456,
        "internal_node_id": "0.0-6.0"
      },
      {
        "rt": 3726,
        "response": {
          "Q0": " Not sure"
        },
        "question_order": [
          0
        ],
        "trial_type": "survey-multi-choice",
        "trial_index": 7,
        "time_elapsed": 40184,
        "internal_node_id": "0.0-7.0"
      },
      {
        "rt": 25272,
        "stimulus": "<div style='float: left;'><img src=../img/plots/binary_0.44278258556149_.png width=\"1000\"></img></div>",
        "slider_start": 1940,
        "response": 1980,
        "stimulus_type": "../img/plots/binary_0.44278258556149_.png",
        "trial_type": "html-slider-response",
        "trial_index": 8,
        "time_elapsed": 65461,
        "internal_node_id": "0.0-8.0"
      },
      {
        "rt": 27893,
        "response": {
          "Temperature": 7,
          "Attention": 9,
          "Climate": 7,
          "Freeze": 7
        },
        "question_order": [
          0,
          3,
          2,
          1
        ],
        "trial_type": "survey-likert",
        "trial_index": 9,
        "time_elapsed": 93357,
        "internal_node_id": "0.0-9.0"
      }
    ]
  },
  "__v": 0
},
{
  "_id": {
    "$oid": "668c22796c3fdf70df33e11f"
  },
  "data": {
    "trials": [
      {
        "success": true,
        "timeout": false,
        "failed_images": [],
        "failed_audio": [],
        "failed_video": [],
        "trial_type": "preload",
        "trial_index": 0,
        "time_elapsed": 138,
        "internal_node_id": "0.0-0.0"
      },
      {
        "rt": 4698,
        "response": {
          "Q0": " I consent to participate"
        },
        "question_order": [
          0
        ],
        "trial_type": "survey-multi-choice",
        "trial_index": 1,
        "time_elapsed": 4837,
        "internal_node_id": "0.0-1.0"
      },
      {
        "view_history": [
          {
            "page_index": 0,
            "viewing_time": 1195
          },
          {
            "page_index": 1,
            "viewing_time": 9553
          }
        ],
        "rt": 10748,
        "trial_type": "instructions",
        "trial_index": 2,
        "time_elapsed": 15586,
        "internal_node_id": "0.0-2.0"
      },
      {
        "view_history": [
          {
            "page_index": 0,
            "viewing_time": 3875
          }
        ],
        "rt": 3875,
        "stimulus_type": "freeze",
        "trial_type": "instructions",
        "trial_index": 3,
        "time_elapsed": 19462,
        "internal_node_id": "0.0-3.0"
      },
      {
        "view_history": [
          {
            "page_index": 0,
            "viewing_time": 4285
          }
        ],
        "rt": 4285,
        "stimulus_type": "freeze",
        "trial_type": "instructions",
        "trial_index": 4,
        "time_elapsed": 23748,
        "internal_node_id": "0.0-4.0"
      },
      {
        "rt": 6347,
        "stimulus": "Now the graph will be shown to you. Again, your goal is to identify a <b>changepoint</b> (a year where you perceive difference in the pattern of the data before and after).",
        "response": "v",
        "trial_type": "html-keyboard-response",
        "trial_index": 5,
        "time_elapsed": 30095,
        "internal_node_id": "0.0-5.0"
      },
      {
        "rt": 10926,
        "stimulus": "<div style='float: center;'><img src=../img/plots/binary_0.44278258556149_.png width=\"1000\"></img></div>",
        "response": "v",
        "stimulus_type": "../img/plots/binary_0.44278258556149_.png",
        "trial_type": "html-keyboard-response",
        "trial_index": 6,
        "time_elapsed": 41023,
        "internal_node_id": "0.0-6.0"
      },
      {
        "rt": 2148,
        "response": {
          "Q0": " Yes"
        },
        "question_order": [
          0
        ],
        "trial_type": "survey-multi-choice",
        "trial_index": 7,
        "time_elapsed": 43172,
        "internal_node_id": "0.0-7.0"
      },
      {
        "rt": 9768,
        "stimulus": "<div style='float: left;'><img src=../img/plots/binary_0.44278258556149_.png width=\"1000\"></img></div>",
        "slider_start": 1940,
        "response": 1942,
        "stimulus_type": "../img/plots/binary_0.44278258556149_.png",
        "trial_type": "html-slider-response",
        "trial_index": 8,
        "time_elapsed": 52942,
        "internal_node_id": "0.0-8.0"
      },
      {
        "rt": 22490,
        "response": {
          "Attention": 9,
          "Temperature": 6,
          "Climate": 8,
          "Freeze": 7
        },
        "question_order": [
          3,
          0,
          2,
          1
        ],
        "trial_type": "survey-likert",
        "trial_index": 9,
        "time_elapsed": 75434,
        "internal_node_id": "0.0-9.0"
      }
    ]
  },
  "__v": 0
},
{
  "_id": {
    "$oid": "668c227a6c3fdf70df33e121"
  },
  "data": {
    "trials": [
      {
        "success": true,
        "timeout": false,
        "failed_images": [],
        "failed_audio": [],
        "failed_video": [],
        "trial_type": "preload",
        "trial_index": 0,
        "time_elapsed": 242,
        "internal_node_id": "0.0-0.0"
      },
      {
        "rt": 3468,
        "response": {
          "Q0": " I consent to participate"
        },
        "question_order": [
          0
        ],
        "trial_type": "survey-multi-choice",
        "trial_index": 1,
        "time_elapsed": 3712,
        "internal_node_id": "0.0-1.0"
      },
      {
        "view_history": [
          {
            "page_index": 0,
            "viewing_time": 1485
          },
          {
            "page_index": 1,
            "viewing_time": 49159
          }
        ],
        "rt": 50645,
        "trial_type": "instructions",
        "trial_index": 2,
        "time_elapsed": 54360,
        "internal_node_id": "0.0-2.0"
      },
      {
        "view_history": [
          {
            "page_index": 0,
            "viewing_time": 6128
          }
        ],
        "rt": 6128,
        "stimulus_type": "temp",
        "trial_type": "instructions",
        "trial_index": 3,
        "time_elapsed": 60488,
        "internal_node_id": "0.0-3.0"
      },
      {
        "view_history": [
          {
            "page_index": 0,
            "viewing_time": 5495
          }
        ],
        "rt": 5495,
        "stimulus_type": "temp",
        "trial_type": "instructions",
        "trial_index": 4,
        "time_elapsed": 65984,
        "internal_node_id": "0.0-4.0"
      },
      {
        "rt": 4970,
        "stimulus": "Now the graph will be shown to you. Again, your goal is to identify a <b>changepoint</b> (a year where you perceive difference in the pattern of the data before and after).",
        "response": "v",
        "trial_type": "html-keyboard-response",
        "trial_index": 5,
        "time_elapsed": 70956,
        "internal_node_id": "0.0-5.0"
      },
      {
        "rt": 17898,
        "stimulus": "<div style='float: center;'><img src=../img/plots/continuous_0.230878804398407_.png width=\"1000\" ></img></div>",
        "response": "v",
        "stimulus_type": "../img/plots/continuous_0.230878804398407_.png",
        "trial_type": "html-keyboard-response",
        "trial_index": 6,
        "time_elapsed": 88856,
        "internal_node_id": "0.0-6.0"
      },
      {
        "rt": 3151,
        "response": {
          "Q0": " Yes"
        },
        "question_order": [
          0
        ],
        "trial_type": "survey-multi-choice",
        "trial_index": 7,
        "time_elapsed": 92008,
        "internal_node_id": "0.0-7.0"
      },
      {
        "rt": 10245,
        "stimulus": "<div style='float: left;'><img src=../img/plots/continuous_0.230878804398407_.png width=\"1000\"></img></div>",
        "slider_start": 1940,
        "response": 1999,
        "stimulus_type": "../img/plots/continuous_0.230878804398407_.png",
        "trial_type": "html-slider-response",
        "trial_index": 8,
        "time_elapsed": 102256,
        "internal_node_id": "0.0-8.0"
      },
      {
        "rt": 16887,
        "response": {
          "Attention": 9,
          "Climate": 3,
          "Temperature": 4,
          "Freeze": 2
        },
        "question_order": [
          3,
          2,
          0,
          1
        ],
        "trial_type": "survey-likert",
        "trial_index": 9,
        "time_elapsed": 119145,
        "internal_node_id": "0.0-9.0"
      }
    ]
  },
  "__v": 0
},
{
  "_id": {
    "$oid": "668c227c6c3fdf70df33e123"
  },
  "data": {
    "trials": [
      {
        "success": true,
        "timeout": false,
        "failed_images": [],
        "failed_audio": [],
        "failed_video": [],
        "trial_type": "preload",
        "trial_index": 0,
        "time_elapsed": 215,
        "internal_node_id": "0.0-0.0"
      },
      {
        "rt": 2935,
        "response": {
          "Q0": " I consent to participate"
        },
        "question_order": [
          0
        ],
        "trial_type": "survey-multi-choice",
        "trial_index": 1,
        "time_elapsed": 3151,
        "internal_node_id": "0.0-1.0"
      },
      {
        "view_history": [
          {
            "page_index": 0,
            "viewing_time": 1176
          },
          {
            "page_index": 1,
            "viewing_time": 1098
          }
        ],
        "rt": 2274,
        "trial_type": "instructions",
        "trial_index": 2,
        "time_elapsed": 5426,
        "internal_node_id": "0.0-2.0"
      },
      {
        "view_history": [
          {
            "page_index": 0,
            "viewing_time": 1310
          }
        ],
        "rt": 1310,
        "stimulus_type": "freeze",
        "trial_type": "instructions",
        "trial_index": 3,
        "time_elapsed": 6737,
        "internal_node_id": "0.0-3.0"
      },
      {
        "view_history": [
          {
            "page_index": 0,
            "viewing_time": 924
          }
        ],
        "rt": 924,
        "stimulus_type": "freeze",
        "trial_type": "instructions",
        "trial_index": 4,
        "time_elapsed": 7661,
        "internal_node_id": "0.0-4.0"
      },
      {
        "rt": 2667,
        "stimulus": "Now the graph will be shown to you. Again, your goal is to identify a <b>changepoint</b> (a year where you perceive difference in the pattern of the data before and after).",
        "response": "v",
        "trial_type": "html-keyboard-response",
        "trial_index": 5,
        "time_elapsed": 10329,
        "internal_node_id": "0.0-5.0"
      },
      {
        "rt": 1549,
        "stimulus": "<div style='float: center;'><img src=../img/plots/binary_0.230878804398407_.png width=\"1000\"></img></div>",
        "response": "v",
        "stimulus_type": "../img/plots/binary_0.230878804398407_.png",
        "trial_type": "html-keyboard-response",
        "trial_index": 6,
        "time_elapsed": 11878,
        "internal_node_id": "0.0-6.0"
      },
      {
        "rt": 3531,
        "response": {
          "Q0": " Not sure"
        },
        "question_order": [
          0
        ],
        "trial_type": "survey-multi-choice",
        "trial_index": 7,
        "time_elapsed": 15409,
        "internal_node_id": "0.0-7.0"
      },
      {
        "rt": 17013,
        "stimulus": "<div style='float: left;'><img src=../img/plots/binary_0.230878804398407_.png width=\"1000\"></img></div>",
        "slider_start": 1940,
        "response": 2009,
        "stimulus_type": "../img/plots/binary_0.230878804398407_.png",
        "trial_type": "html-slider-response",
        "trial_index": 8,
        "time_elapsed": 32423,
        "internal_node_id": "0.0-8.0"
      },
      {
        "rt": 14548,
        "response": {
          "Climate": 0,
          "Attention": 0,
          "Freeze": 0,
          "Temperature": 1
        },
        "question_order": [
          2,
          3,
          1,
          0
        ],
        "trial_type": "survey-likert",
        "trial_index": 9,
        "time_elapsed": 46973,
        "internal_node_id": "0.0-9.0"
      }
    ]
  },
  "__v": 0
},
{
  "_id": {
    "$oid": "668c227d6c3fdf70df33e125"
  },
  "data": {
    "trials": [
      {
        "success": true,
        "timeout": false,
        "failed_images": [],
        "failed_audio": [],
        "failed_video": [],
        "trial_type": "preload",
        "trial_index": 0,
        "time_elapsed": 194,
        "internal_node_id": "0.0-0.0"
      },
      {
        "rt": 3538,
        "response": {
          "Q0": " I consent to participate"
        },
        "question_order": [
          0
        ],
        "trial_type": "survey-multi-choice",
        "trial_index": 1,
        "time_elapsed": 3735,
        "internal_node_id": "0.0-1.0"
      },
      {
        "view_history": [
          {
            "page_index": 0,
            "viewing_time": 1663
          },
          {
            "page_index": 1,
            "viewing_time": 9776
          }
        ],
        "rt": 11439,
        "trial_type": "instructions",
        "trial_index": 2,
        "time_elapsed": 15178,
        "internal_node_id": "0.0-2.0"
      },
      {
        "view_history": [
          {
            "page_index": 0,
            "viewing_time": 6162
          }
        ],
        "rt": 6163,
        "stimulus_type": "temp",
        "trial_type": "instructions",
        "trial_index": 3,
        "time_elapsed": 21341,
        "internal_node_id": "0.0-3.0"
      },
      {
        "view_history": [
          {
            "page_index": 0,
            "viewing_time": 2490
          }
        ],
        "rt": 2490,
        "stimulus_type": "temp",
        "trial_type": "instructions",
        "trial_index": 4,
        "time_elapsed": 23832,
        "internal_node_id": "0.0-4.0"
      },
      {
        "rt": 3295,
        "stimulus": "Now the graph will be shown to you. Again, your goal is to identify a <b>changepoint</b> (a year where you perceive difference in the pattern of the data before and after).",
        "response": "v",
        "trial_type": "html-keyboard-response",
        "trial_index": 5,
        "time_elapsed": 27128,
        "internal_node_id": "0.0-5.0"
      },
      {
        "rt": 6063,
        "stimulus": "<div style='float: center;'><img src=../img/plots/continuous_0.659323805510727_.png width=\"1000\" ></img></div>",
        "response": "v",
        "stimulus_type": "../img/plots/continuous_0.659323805510727_.png",
        "trial_type": "html-keyboard-response",
        "trial_index": 6,
        "time_elapsed": 33192,
        "internal_node_id": "0.0-6.0"
      },
      {
        "rt": 5710,
        "response": {
          "Q0": " Not sure"
        },
        "question_order": [
          0
        ],
        "trial_type": "survey-multi-choice",
        "trial_index": 7,
        "time_elapsed": 38904,
        "internal_node_id": "0.0-7.0"
      },
      {
        "rt": 10138,
        "stimulus": "<div style='float: left;'><img src=../img/plots/continuous_0.659323805510727_.png width=\"1000\"></img></div>",
        "slider_start": 1940,
        "response": 2003,
        "stimulus_type": "../img/plots/continuous_0.659323805510727_.png",
        "trial_type": "html-slider-response",
        "trial_index": 8,
        "time_elapsed": 49048,
        "internal_node_id": "0.0-8.0"
      },
      {
        "rt": 25198,
        "response": {
          "Temperature": 6,
          "Freeze": 6,
          "Attention": 9,
          "Climate": 5
        },
        "question_order": [
          0,
          1,
          3,
          2
        ],
        "trial_type": "survey-likert",
        "trial_index": 9,
        "time_elapsed": 74250,
        "internal_node_id": "0.0-9.0"
      }
    ]
  },
  "__v": 0
},
{
  "_id": {
    "$oid": "668c227d6c3fdf70df33e127"
  },
  "data": {
    "trials": [
      {
        "success": true,
        "timeout": false,
        "failed_images": [],
        "failed_audio": [],
        "failed_video": [],
        "trial_type": "preload",
        "trial_index": 0,
        "time_elapsed": 162,
        "internal_node_id": "0.0-0.0"
      },
      {
        "rt": 3218,
        "response": {
          "Q0": " I consent to participate"
        },
        "question_order": [
          0
        ],
        "trial_type": "survey-multi-choice",
        "trial_index": 1,
        "time_elapsed": 3382,
        "internal_node_id": "0.0-1.0"
      },
      {
        "view_history": [
          {
            "page_index": 0,
            "viewing_time": 3706
          },
          {
            "page_index": 1,
            "viewing_time": 6900
          }
        ],
        "rt": 10606,
        "trial_type": "instructions",
        "trial_index": 2,
        "time_elapsed": 13990,
        "internal_node_id": "0.0-2.0"
      },
      {
        "view_history": [
          {
            "page_index": 0,
            "viewing_time": 11084
          }
        ],
        "rt": 11084,
        "stimulus_type": "temp",
        "trial_type": "instructions",
        "trial_index": 3,
        "time_elapsed": 25074,
        "internal_node_id": "0.0-3.0"
      },
      {
        "view_history": [
          {
            "page_index": 0,
            "viewing_time": 4088
          }
        ],
        "rt": 4088,
        "stimulus_type": "temp",
        "trial_type": "instructions",
        "trial_index": 4,
        "time_elapsed": 29162,
        "internal_node_id": "0.0-4.0"
      },
      {
        "rt": 4494,
        "stimulus": "Now the graph will be shown to you. Again, your goal is to identify a <b>changepoint</b> (a year where you perceive difference in the pattern of the data before and after).",
        "response": "v",
        "trial_type": "html-keyboard-response",
        "trial_index": 5,
        "time_elapsed": 33657,
        "internal_node_id": "0.0-5.0"
      },
      {
        "rt": 11718,
        "stimulus": "<div style='float: center;'><img src=../img/plots/continuous_0.230878804398407_.png width=\"1000\" ></img></div>",
        "response": "v",
        "stimulus_type": "../img/plots/continuous_0.230878804398407_.png",
        "trial_type": "html-keyboard-response",
        "trial_index": 6,
        "time_elapsed": 45376,
        "internal_node_id": "0.0-6.0"
      },
      {
        "rt": 3221,
        "response": {
          "Q0": " Yes"
        },
        "question_order": [
          0
        ],
        "trial_type": "survey-multi-choice",
        "trial_index": 7,
        "time_elapsed": 48598,
        "internal_node_id": "0.0-7.0"
      },
      {
        "rt": 17926,
        "stimulus": "<div style='float: left;'><img src=../img/plots/continuous_0.230878804398407_.png width=\"1000\"></img></div>",
        "slider_start": 1940,
        "response": 1996,
        "stimulus_type": "../img/plots/continuous_0.230878804398407_.png",
        "trial_type": "html-slider-response",
        "trial_index": 8,
        "time_elapsed": 66526,
        "internal_node_id": "0.0-8.0"
      },
      {
        "rt": 21963,
        "response": {
          "Climate": 3,
          "Temperature": 5,
          "Attention": 9,
          "Freeze": 4
        },
        "question_order": [
          2,
          0,
          3,
          1
        ],
        "trial_type": "survey-likert",
        "trial_index": 9,
        "time_elapsed": 88491,
        "internal_node_id": "0.0-9.0"
      }
    ]
  },
  "__v": 0
},
{
  "_id": {
    "$oid": "668c227d6c3fdf70df33e129"
  },
  "data": {
    "trials": [
      {
        "success": true,
        "timeout": false,
        "failed_images": [],
        "failed_audio": [],
        "failed_video": [],
        "trial_type": "preload",
        "trial_index": 0,
        "time_elapsed": 219,
        "internal_node_id": "0.0-0.0"
      },
      {
        "rt": 3372,
        "response": {
          "Q0": " I consent to participate"
        },
        "question_order": [
          0
        ],
        "trial_type": "survey-multi-choice",
        "trial_index": 1,
        "time_elapsed": 3592,
        "internal_node_id": "0.0-1.0"
      },
      {
        "view_history": [
          {
            "page_index": 0,
            "viewing_time": 2552
          },
          {
            "page_index": 1,
            "viewing_time": 5328
          }
        ],
        "rt": 7881,
        "trial_type": "instructions",
        "trial_index": 2,
        "time_elapsed": 11476,
        "internal_node_id": "0.0-2.0"
      },
      {
        "view_history": [
          {
            "page_index": 0,
            "viewing_time": 4809
          }
        ],
        "rt": 4809,
        "stimulus_type": "temp",
        "trial_type": "instructions",
        "trial_index": 3,
        "time_elapsed": 16286,
        "internal_node_id": "0.0-3.0"
      },
      {
        "view_history": [
          {
            "page_index": 0,
            "viewing_time": 2832
          }
        ],
        "rt": 2832,
        "stimulus_type": "temp",
        "trial_type": "instructions",
        "trial_index": 4,
        "time_elapsed": 19118,
        "internal_node_id": "0.0-4.0"
      },
      {
        "rt": 2535,
        "stimulus": "Now the graph will be shown to you. Again, your goal is to identify a <b>changepoint</b> (a year where you perceive difference in the pattern of the data before and after).",
        "response": "v",
        "trial_type": "html-keyboard-response",
        "trial_index": 5,
        "time_elapsed": 21653,
        "internal_node_id": "0.0-5.0"
      },
      {
        "rt": 17087,
        "stimulus": "<div style='float: center;'><img src=../img/plots/continuous_0.659323805510727_.png width=\"1000\" ></img></div>",
        "response": "v",
        "stimulus_type": "../img/plots/continuous_0.659323805510727_.png",
        "trial_type": "html-keyboard-response",
        "trial_index": 6,
        "time_elapsed": 38741,
        "internal_node_id": "0.0-6.0"
      },
      {
        "rt": 4215,
        "response": {
          "Q0": " Not sure"
        },
        "question_order": [
          0
        ],
        "trial_type": "survey-multi-choice",
        "trial_index": 7,
        "time_elapsed": 42957,
        "internal_node_id": "0.0-7.0"
      },
      {
        "rt": 11508,
        "stimulus": "<div style='float: left;'><img src=../img/plots/continuous_0.659323805510727_.png width=\"1000\"></img></div>",
        "slider_start": 1940,
        "response": 1966,
        "stimulus_type": "../img/plots/continuous_0.659323805510727_.png",
        "trial_type": "html-slider-response",
        "trial_index": 8,
        "time_elapsed": 54468,
        "internal_node_id": "0.0-8.0"
      },
      {
        "rt": 12319,
        "response": {
          "Freeze": 6,
          "Temperature": 6,
          "Climate": 7,
          "Attention": 9
        },
        "question_order": [
          1,
          0,
          2,
          3
        ],
        "trial_type": "survey-likert",
        "trial_index": 9,
        "time_elapsed": 66792,
        "internal_node_id": "0.0-9.0"
      }
    ]
  },
  "__v": 0
},
{
  "_id": {
    "$oid": "668c227e6c3fdf70df33e12b"
  },
  "data": {
    "trials": [
      {
        "success": true,
        "timeout": false,
        "failed_images": [],
        "failed_audio": [],
        "failed_video": [],
        "trial_type": "preload",
        "trial_index": 0,
        "time_elapsed": 127,
        "internal_node_id": "0.0-0.0"
      },
      {
        "rt": 4057,
        "response": {
          "Q0": " I consent to participate"
        },
        "question_order": [
          0
        ],
        "trial_type": "survey-multi-choice",
        "trial_index": 1,
        "time_elapsed": 4185,
        "internal_node_id": "0.0-1.0"
      },
      {
        "view_history": [
          {
            "page_index": 0,
            "viewing_time": 2782
          },
          {
            "page_index": 1,
            "viewing_time": 7496
          }
        ],
        "rt": 10278,
        "trial_type": "instructions",
        "trial_index": 2,
        "time_elapsed": 14465,
        "internal_node_id": "0.0-2.0"
      },
      {
        "view_history": [
          {
            "page_index": 0,
            "viewing_time": 12064
          }
        ],
        "rt": 12065,
        "stimulus_type": "freeze",
        "trial_type": "instructions",
        "trial_index": 3,
        "time_elapsed": 26530,
        "internal_node_id": "0.0-3.0"
      },
      {
        "view_history": [
          {
            "page_index": 0,
            "viewing_time": 6302
          }
        ],
        "rt": 6302,
        "stimulus_type": "freeze",
        "trial_type": "instructions",
        "trial_index": 4,
        "time_elapsed": 32833,
        "internal_node_id": "0.0-4.0"
      },
      {
        "rt": 4833,
        "stimulus": "Now the graph will be shown to you. Again, your goal is to identify a <b>changepoint</b> (a year where you perceive difference in the pattern of the data before and after).",
        "response": "v",
        "trial_type": "html-keyboard-response",
        "trial_index": 5,
        "time_elapsed": 37667,
        "internal_node_id": "0.0-5.0"
      },
      {
        "rt": 10389,
        "stimulus": "<div style='float: center;'><img src=../img/plots/binary_0.659323805510727_.png width=\"1000\"></img></div>",
        "response": "v",
        "stimulus_type": "../img/plots/binary_0.659323805510727_.png",
        "trial_type": "html-keyboard-response",
        "trial_index": 6,
        "time_elapsed": 48057,
        "internal_node_id": "0.0-6.0"
      },
      {
        "rt": 3177,
        "response": {
          "Q0": " Yes"
        },
        "question_order": [
          0
        ],
        "trial_type": "survey-multi-choice",
        "trial_index": 7,
        "time_elapsed": 51235,
        "internal_node_id": "0.0-7.0"
      },
      {
        "rt": 19789,
        "stimulus": "<div style='float: left;'><img src=../img/plots/binary_0.659323805510727_.png width=\"1000\"></img></div>",
        "slider_start": 1940,
        "response": 1973,
        "stimulus_type": "../img/plots/binary_0.659323805510727_.png",
        "trial_type": "html-slider-response",
        "trial_index": 8,
        "time_elapsed": 71033,
        "internal_node_id": "0.0-8.0"
      },
      {
        "rt": 24714,
        "response": {
          "Temperature": 5,
          "Climate": 6,
          "Freeze": 6,
          "Attention": 9
        },
        "question_order": [
          0,
          2,
          1,
          3
        ],
        "trial_type": "survey-likert",
        "trial_index": 9,
        "time_elapsed": 95749,
        "internal_node_id": "0.0-9.0"
      }
    ]
  },
  "__v": 0
},
{
  "_id": {
    "$oid": "668c22846c3fdf70df33e12d"
  },
  "data": {
    "trials": [
      {
        "success": true,
        "timeout": false,
        "failed_images": [],
        "failed_audio": [],
        "failed_video": [],
        "trial_type": "preload",
        "trial_index": 0,
        "time_elapsed": 424,
        "internal_node_id": "0.0-0.0"
      },
      {
        "rt": 8980,
        "response": {
          "Q0": " I consent to participate"
        },
        "question_order": [
          0
        ],
        "trial_type": "survey-multi-choice",
        "trial_index": 1,
        "time_elapsed": 9408,
        "internal_node_id": "0.0-1.0"
      },
      {
        "view_history": [
          {
            "page_index": 0,
            "viewing_time": 2853
          },
          {
            "page_index": 1,
            "viewing_time": 13439
          }
        ],
        "rt": 16295,
        "trial_type": "instructions",
        "trial_index": 2,
        "time_elapsed": 25714,
        "internal_node_id": "0.0-2.0"
      },
      {
        "view_history": [
          {
            "page_index": 0,
            "viewing_time": 12546
          }
        ],
        "rt": 12547,
        "stimulus_type": "freeze",
        "trial_type": "instructions",
        "trial_index": 3,
        "time_elapsed": 38264,
        "internal_node_id": "0.0-3.0"
      },
      {
        "view_history": [
          {
            "page_index": 0,
            "viewing_time": 7742
          }
        ],
        "rt": 7744,
        "stimulus_type": "freeze",
        "trial_type": "instructions",
        "trial_index": 4,
        "time_elapsed": 46009,
        "internal_node_id": "0.0-4.0"
      },
      {
        "rt": 6980,
        "stimulus": "Now the graph will be shown to you. Again, your goal is to identify a <b>changepoint</b> (a year where you perceive difference in the pattern of the data before and after).",
        "response": "v",
        "trial_type": "html-keyboard-response",
        "trial_index": 5,
        "time_elapsed": 52993,
        "internal_node_id": "0.0-5.0"
      },
      {
        "rt": 15548,
        "stimulus": "<div style='float: center;'><img src=../img/plots/binary_0.659323805510727_.png width=\"1000\"></img></div>",
        "response": "v",
        "stimulus_type": "../img/plots/binary_0.659323805510727_.png",
        "trial_type": "html-keyboard-response",
        "trial_index": 6,
        "time_elapsed": 68544,
        "internal_node_id": "0.0-6.0"
      },
      {
        "rt": 4159,
        "response": {
          "Q0": " Yes"
        },
        "question_order": [
          0
        ],
        "trial_type": "survey-multi-choice",
        "trial_index": 7,
        "time_elapsed": 72707,
        "internal_node_id": "0.0-7.0"
      },
      {
        "rt": 20281,
        "stimulus": "<div style='float: left;'><img src=../img/plots/binary_0.659323805510727_.png width=\"1000\"></img></div>",
        "slider_start": 1940,
        "response": 1972,
        "stimulus_type": "../img/plots/binary_0.659323805510727_.png",
        "trial_type": "html-slider-response",
        "trial_index": 8,
        "time_elapsed": 93009,
        "internal_node_id": "0.0-8.0"
      },
      {
        "rt": 20587,
        "response": {
          "Climate": 7,
          "Temperature": 7,
          "Freeze": 7,
          "Attention": 9
        },
        "question_order": [
          2,
          0,
          1,
          3
        ],
        "trial_type": "survey-likert",
        "trial_index": 9,
        "time_elapsed": 113607,
        "internal_node_id": "0.0-9.0"
      }
    ]
  },
  "__v": 0
},
{
  "_id": {
    "$oid": "668c22876c3fdf70df33e12f"
  },
  "data": {
    "trials": [
      {
        "success": true,
        "timeout": false,
        "failed_images": [],
        "failed_audio": [],
        "failed_video": [],
        "trial_type": "preload",
        "trial_index": 0,
        "time_elapsed": 589,
        "internal_node_id": "0.0-0.0"
      },
      {
        "rt": 4941,
        "response": {
          "Q0": " I consent to participate"
        },
        "question_order": [
          0
        ],
        "trial_type": "survey-multi-choice",
        "trial_index": 1,
        "time_elapsed": 5531,
        "internal_node_id": "0.0-1.0"
      },
      {
        "view_history": [
          {
            "page_index": 0,
            "viewing_time": 5098
          },
          {
            "page_index": 1,
            "viewing_time": 7568
          }
        ],
        "rt": 12666,
        "trial_type": "instructions",
        "trial_index": 2,
        "time_elapsed": 18200,
        "internal_node_id": "0.0-2.0"
      },
      {
        "view_history": [
          {
            "page_index": 0,
            "viewing_time": 18823
          }
        ],
        "rt": 18823,
        "stimulus_type": "freeze",
        "trial_type": "instructions",
        "trial_index": 3,
        "time_elapsed": 37024,
        "internal_node_id": "0.0-3.0"
      },
      {
        "view_history": [
          {
            "page_index": 0,
            "viewing_time": 5293
          }
        ],
        "rt": 5293,
        "stimulus_type": "freeze",
        "trial_type": "instructions",
        "trial_index": 4,
        "time_elapsed": 42318,
        "internal_node_id": "0.0-4.0"
      },
      {
        "rt": 6618,
        "stimulus": "Now the graph will be shown to you. Again, your goal is to identify a <b>changepoint</b> (a year where you perceive difference in the pattern of the data before and after).",
        "response": "v",
        "trial_type": "html-keyboard-response",
        "trial_index": 5,
        "time_elapsed": 48937,
        "internal_node_id": "0.0-5.0"
      },
      {
        "rt": 13054,
        "stimulus": "<div style='float: center;'><img src=../img/plots/binary_0.230878804398407_.png width=\"1000\"></img></div>",
        "response": "v",
        "stimulus_type": "../img/plots/binary_0.230878804398407_.png",
        "trial_type": "html-keyboard-response",
        "trial_index": 6,
        "time_elapsed": 61992,
        "internal_node_id": "0.0-6.0"
      },
      {
        "rt": 4085,
        "response": {
          "Q0": " Yes"
        },
        "question_order": [
          0
        ],
        "trial_type": "survey-multi-choice",
        "trial_index": 7,
        "time_elapsed": 66078,
        "internal_node_id": "0.0-7.0"
      },
      {
        "rt": 17200,
        "stimulus": "<div style='float: left;'><img src=../img/plots/binary_0.230878804398407_.png width=\"1000\"></img></div>",
        "slider_start": 1940,
        "response": 1983,
        "stimulus_type": "../img/plots/binary_0.230878804398407_.png",
        "trial_type": "html-slider-response",
        "trial_index": 8,
        "time_elapsed": 83282,
        "internal_node_id": "0.0-8.0"
      },
      {
        "rt": 16434,
        "response": {
          "Freeze": 6,
          "Attention": 9,
          "Climate": 5,
          "Temperature": 6
        },
        "question_order": [
          1,
          3,
          2,
          0
        ],
        "trial_type": "survey-likert",
        "trial_index": 9,
        "time_elapsed": 99718,
        "internal_node_id": "0.0-9.0"
      }
    ]
  },
  "__v": 0
},
{
  "_id": {
    "$oid": "668c228c6c3fdf70df33e131"
  },
  "data": {
    "trials": [
      {
        "success": true,
        "timeout": false,
        "failed_images": [],
        "failed_audio": [],
        "failed_video": [],
        "trial_type": "preload",
        "trial_index": 0,
        "time_elapsed": 216,
        "internal_node_id": "0.0-0.0"
      },
      {
        "rt": 13698,
        "response": {
          "Q0": " I consent to participate"
        },
        "question_order": [
          0
        ],
        "trial_type": "survey-multi-choice",
        "trial_index": 1,
        "time_elapsed": 13917,
        "internal_node_id": "0.0-1.0"
      },
      {
        "view_history": [
          {
            "page_index": 0,
            "viewing_time": 3234
          },
          {
            "page_index": 1,
            "viewing_time": 6640
          }
        ],
        "rt": 9874,
        "trial_type": "instructions",
        "trial_index": 2,
        "time_elapsed": 23795,
        "internal_node_id": "0.0-2.0"
      },
      {
        "view_history": [
          {
            "page_index": 0,
            "viewing_time": 5758
          }
        ],
        "rt": 5759,
        "stimulus_type": "temp",
        "trial_type": "instructions",
        "trial_index": 3,
        "time_elapsed": 29554,
        "internal_node_id": "0.0-3.0"
      },
      {
        "view_history": [
          {
            "page_index": 0,
            "viewing_time": 4296
          }
        ],
        "rt": 4296,
        "stimulus_type": "temp",
        "trial_type": "instructions",
        "trial_index": 4,
        "time_elapsed": 33851,
        "internal_node_id": "0.0-4.0"
      },
      {
        "rt": 4010,
        "stimulus": "Now the graph will be shown to you. Again, your goal is to identify a <b>changepoint</b> (a year where you perceive difference in the pattern of the data before and after).",
        "response": "v",
        "trial_type": "html-keyboard-response",
        "trial_index": 5,
        "time_elapsed": 37862,
        "internal_node_id": "0.0-5.0"
      },
      {
        "rt": 18267,
        "stimulus": "<div style='float: center;'><img src=../img/plots/continuous_0.659323805510727_.png width=\"1000\" ></img></div>",
        "response": "v",
        "stimulus_type": "../img/plots/continuous_0.659323805510727_.png",
        "trial_type": "html-keyboard-response",
        "trial_index": 6,
        "time_elapsed": 56131,
        "internal_node_id": "0.0-6.0"
      },
      {
        "rt": 9773,
        "response": {
          "Q0": " Not sure"
        },
        "question_order": [
          0
        ],
        "trial_type": "survey-multi-choice",
        "trial_index": 7,
        "time_elapsed": 65906,
        "internal_node_id": "0.0-7.0"
      },
      {
        "rt": 14803,
        "stimulus": "<div style='float: left;'><img src=../img/plots/continuous_0.659323805510727_.png width=\"1000\"></img></div>",
        "slider_start": 1940,
        "response": 1966,
        "stimulus_type": "../img/plots/continuous_0.659323805510727_.png",
        "trial_type": "html-slider-response",
        "trial_index": 8,
        "time_elapsed": 80716,
        "internal_node_id": "0.0-8.0"
      },
      {
        "rt": 15436,
        "response": {
          "Climate": 7,
          "Temperature": 9,
          "Freeze": 8,
          "Attention": 9
        },
        "question_order": [
          2,
          0,
          1,
          3
        ],
        "trial_type": "survey-likert",
        "trial_index": 9,
        "time_elapsed": 96157,
        "internal_node_id": "0.0-9.0"
      }
    ]
  },
  "__v": 0
},
{
  "_id": {
    "$oid": "668c228c6c3fdf70df33e133"
  },
  "data": {
    "trials": [
      {
        "success": true,
        "timeout": false,
        "failed_images": [],
        "failed_audio": [],
        "failed_video": [],
        "trial_type": "preload",
        "trial_index": 0,
        "time_elapsed": 417,
        "internal_node_id": "0.0-0.0"
      },
      {
        "rt": 9804,
        "response": {
          "Q0": " I consent to participate"
        },
        "question_order": [
          0
        ],
        "trial_type": "survey-multi-choice",
        "trial_index": 1,
        "time_elapsed": 10227,
        "internal_node_id": "0.0-1.0"
      },
      {
        "view_history": [
          {
            "page_index": 0,
            "viewing_time": 4139
          },
          {
            "page_index": 1,
            "viewing_time": 9512
          }
        ],
        "rt": 13651,
        "trial_type": "instructions",
        "trial_index": 2,
        "time_elapsed": 23881,
        "internal_node_id": "0.0-2.0"
      },
      {
        "view_history": [
          {
            "page_index": 0,
            "viewing_time": 13130
          }
        ],
        "rt": 13130,
        "stimulus_type": "freeze",
        "trial_type": "instructions",
        "trial_index": 3,
        "time_elapsed": 37013,
        "internal_node_id": "0.0-3.0"
      },
      {
        "view_history": [
          {
            "page_index": 0,
            "viewing_time": 4726
          }
        ],
        "rt": 4727,
        "stimulus_type": "freeze",
        "trial_type": "instructions",
        "trial_index": 4,
        "time_elapsed": 41741,
        "internal_node_id": "0.0-4.0"
      },
      {
        "rt": 6875,
        "stimulus": "Now the graph will be shown to you. Again, your goal is to identify a <b>changepoint</b> (a year where you perceive difference in the pattern of the data before and after).",
        "response": "v",
        "trial_type": "html-keyboard-response",
        "trial_index": 5,
        "time_elapsed": 48619,
        "internal_node_id": "0.0-5.0"
      },
      {
        "rt": 18077,
        "stimulus": "<div style='float: center;'><img src=../img/plots/binary_0.44278258556149_.png width=\"1000\"></img></div>",
        "response": "v",
        "stimulus_type": "../img/plots/binary_0.44278258556149_.png",
        "trial_type": "html-keyboard-response",
        "trial_index": 6,
        "time_elapsed": 66696,
        "internal_node_id": "0.0-6.0"
      },
      {
        "rt": 5262,
        "response": {
          "Q0": " Yes"
        },
        "question_order": [
          0
        ],
        "trial_type": "survey-multi-choice",
        "trial_index": 7,
        "time_elapsed": 71960,
        "internal_node_id": "0.0-7.0"
      },
      {
        "rt": 28264,
        "stimulus": "<div style='float: left;'><img src=../img/plots/binary_0.44278258556149_.png width=\"1000\"></img></div>",
        "slider_start": 1940,
        "response": 1993,
        "stimulus_type": "../img/plots/binary_0.44278258556149_.png",
        "trial_type": "html-slider-response",
        "trial_index": 8,
        "time_elapsed": 100230,
        "internal_node_id": "0.0-8.0"
      },
      {
        "rt": 33378,
        "response": {
          "Climate": 8,
          "Freeze": 9,
          "Temperature": 8,
          "Attention": 9
        },
        "question_order": [
          2,
          1,
          0,
          3
        ],
        "trial_type": "survey-likert",
        "trial_index": 9,
        "time_elapsed": 133610,
        "internal_node_id": "0.0-9.0"
      }
    ]
  },
  "__v": 0
},
{
  "_id": {
    "$oid": "668c228e6c3fdf70df33e135"
  },
  "data": {
    "trials": [
      {
        "success": true,
        "timeout": false,
        "failed_images": [],
        "failed_audio": [],
        "failed_video": [],
        "trial_type": "preload",
        "trial_index": 0,
        "time_elapsed": 315,
        "internal_node_id": "0.0-0.0"
      },
      {
        "rt": 3508,
        "response": {
          "Q0": " I consent to participate"
        },
        "question_order": [
          0
        ],
        "trial_type": "survey-multi-choice",
        "trial_index": 1,
        "time_elapsed": 3824,
        "internal_node_id": "0.0-1.0"
      },
      {
        "view_history": [
          {
            "page_index": 0,
            "viewing_time": 3367
          },
          {
            "page_index": 1,
            "viewing_time": 4589
          }
        ],
        "rt": 7956,
        "trial_type": "instructions",
        "trial_index": 2,
        "time_elapsed": 11782,
        "internal_node_id": "0.0-2.0"
      },
      {
        "view_history": [
          {
            "page_index": 0,
            "viewing_time": 10773
          }
        ],
        "rt": 10773,
        "stimulus_type": "freeze",
        "trial_type": "instructions",
        "trial_index": 3,
        "time_elapsed": 22555,
        "internal_node_id": "0.0-3.0"
      },
      {
        "view_history": [
          {
            "page_index": 0,
            "viewing_time": 8579
          }
        ],
        "rt": 8579,
        "stimulus_type": "freeze",
        "trial_type": "instructions",
        "trial_index": 4,
        "time_elapsed": 31134,
        "internal_node_id": "0.0-4.0"
      },
      {
        "rt": 8033,
        "stimulus": "Now the graph will be shown to you. Again, your goal is to identify a <b>changepoint</b> (a year where you perceive difference in the pattern of the data before and after).",
        "response": "v",
        "trial_type": "html-keyboard-response",
        "trial_index": 5,
        "time_elapsed": 39168,
        "internal_node_id": "0.0-5.0"
      },
      {
        "rt": 11462,
        "stimulus": "<div style='float: center;'><img src=../img/plots/binary_0.44278258556149_.png width=\"1000\"></img></div>",
        "response": "v",
        "stimulus_type": "../img/plots/binary_0.44278258556149_.png",
        "trial_type": "html-keyboard-response",
        "trial_index": 6,
        "time_elapsed": 50631,
        "internal_node_id": "0.0-6.0"
      },
      {
        "rt": 2972,
        "response": {
          "Q0": " Yes"
        },
        "question_order": [
          0
        ],
        "trial_type": "survey-multi-choice",
        "trial_index": 7,
        "time_elapsed": 53603,
        "internal_node_id": "0.0-7.0"
      },
      {
        "rt": 9164,
        "stimulus": "<div style='float: left;'><img src=../img/plots/binary_0.44278258556149_.png width=\"1000\"></img></div>",
        "slider_start": 1940,
        "response": 1982,
        "stimulus_type": "../img/plots/binary_0.44278258556149_.png",
        "trial_type": "html-slider-response",
        "trial_index": 8,
        "time_elapsed": 62769,
        "internal_node_id": "0.0-8.0"
      },
      {
        "rt": 20438,
        "response": {
          "Climate": 7,
          "Temperature": 6,
          "Attention": 9,
          "Freeze": 5
        },
        "question_order": [
          2,
          0,
          3,
          1
        ],
        "trial_type": "survey-likert",
        "trial_index": 9,
        "time_elapsed": 83210,
        "internal_node_id": "0.0-9.0"
      }
    ]
  },
  "__v": 0
},
{
  "_id": {
    "$oid": "668c228f6c3fdf70df33e137"
  },
  "data": {
    "trials": [
      {
        "success": true,
        "timeout": false,
        "failed_images": [],
        "failed_audio": [],
        "failed_video": [],
        "trial_type": "preload",
        "trial_index": 0,
        "time_elapsed": 443,
        "internal_node_id": "0.0-0.0"
      },
      {
        "rt": 13657,
        "response": {
          "Q0": " I consent to participate"
        },
        "question_order": [
          0
        ],
        "trial_type": "survey-multi-choice",
        "trial_index": 1,
        "time_elapsed": 14106,
        "internal_node_id": "0.0-1.0"
      },
      {
        "view_history": [
          {
            "page_index": 0,
            "viewing_time": 5024
          },
          {
            "page_index": 1,
            "viewing_time": 11499
          }
        ],
        "rt": 16524,
        "trial_type": "instructions",
        "trial_index": 2,
        "time_elapsed": 30635,
        "internal_node_id": "0.0-2.0"
      },
      {
        "view_history": [
          {
            "page_index": 0,
            "viewing_time": 10926
          }
        ],
        "rt": 10927,
        "stimulus_type": "freeze",
        "trial_type": "instructions",
        "trial_index": 3,
        "time_elapsed": 41563,
        "internal_node_id": "0.0-3.0"
      },
      {
        "view_history": [
          {
            "page_index": 0,
            "viewing_time": 8197
          }
        ],
        "rt": 8198,
        "stimulus_type": "freeze",
        "trial_type": "instructions",
        "trial_index": 4,
        "time_elapsed": 49763,
        "internal_node_id": "0.0-4.0"
      },
      {
        "rt": 6886,
        "stimulus": "Now the graph will be shown to you. Again, your goal is to identify a <b>changepoint</b> (a year where you perceive difference in the pattern of the data before and after).",
        "response": "v",
        "trial_type": "html-keyboard-response",
        "trial_index": 5,
        "time_elapsed": 56651,
        "internal_node_id": "0.0-5.0"
      },
      {
        "rt": 15187,
        "stimulus": "<div style='float: center;'><img src=../img/plots/binary_0.44278258556149_.png width=\"1000\"></img></div>",
        "response": "v",
        "stimulus_type": "../img/plots/binary_0.44278258556149_.png",
        "trial_type": "html-keyboard-response",
        "trial_index": 6,
        "time_elapsed": 71840,
        "internal_node_id": "0.0-6.0"
      },
      {
        "rt": 3763,
        "response": {
          "Q0": " Yes"
        },
        "question_order": [
          0
        ],
        "trial_type": "survey-multi-choice",
        "trial_index": 7,
        "time_elapsed": 75604,
        "internal_node_id": "0.0-7.0"
      },
      {
        "rt": 15991,
        "stimulus": "<div style='float: left;'><img src=../img/plots/binary_0.44278258556149_.png width=\"1000\"></img></div>",
        "slider_start": 1940,
        "response": 1983,
        "stimulus_type": "../img/plots/binary_0.44278258556149_.png",
        "trial_type": "html-slider-response",
        "trial_index": 8,
        "time_elapsed": 91601,
        "internal_node_id": "0.0-8.0"
      },
      {
        "rt": 20200,
        "response": {
          "Climate": 8,
          "Freeze": 7,
          "Attention": 9,
          "Temperature": 6
        },
        "question_order": [
          2,
          1,
          3,
          0
        ],
        "trial_type": "survey-likert",
        "trial_index": 9,
        "time_elapsed": 111805,
        "internal_node_id": "0.0-9.0"
      }
    ]
  },
  "__v": 0
},
{
  "_id": {
    "$oid": "668c22906c3fdf70df33e139"
  },
  "data": {
    "trials": [
      {
        "success": true,
        "timeout": false,
        "failed_images": [],
        "failed_audio": [],
        "failed_video": [],
        "trial_type": "preload",
        "trial_index": 0,
        "time_elapsed": 84,
        "internal_node_id": "0.0-0.0"
      },
      {
        "rt": 3168,
        "response": {
          "Q0": " I consent to participate"
        },
        "question_order": [
          0
        ],
        "trial_type": "survey-multi-choice",
        "trial_index": 1,
        "time_elapsed": 3252,
        "internal_node_id": "0.0-1.0"
      },
      {
        "view_history": [
          {
            "page_index": 0,
            "viewing_time": 4728
          },
          {
            "page_index": 1,
            "viewing_time": 12703
          }
        ],
        "rt": 17431,
        "trial_type": "instructions",
        "trial_index": 2,
        "time_elapsed": 20684,
        "internal_node_id": "0.0-2.0"
      },
      {
        "view_history": [
          {
            "page_index": 0,
            "viewing_time": 14837
          }
        ],
        "rt": 14837,
        "stimulus_type": "freeze",
        "trial_type": "instructions",
        "trial_index": 3,
        "time_elapsed": 35516,
        "internal_node_id": "0.0-3.0"
      },
      {
        "view_history": [
          {
            "page_index": 0,
            "viewing_time": 5301
          }
        ],
        "rt": 5301,
        "stimulus_type": "freeze",
        "trial_type": "instructions",
        "trial_index": 4,
        "time_elapsed": 40817,
        "internal_node_id": "0.0-4.0"
      },
      {
        "rt": 5263,
        "stimulus": "Now the graph will be shown to you. Again, your goal is to identify a <b>changepoint</b> (a year where you perceive difference in the pattern of the data before and after).",
        "response": "v",
        "trial_type": "html-keyboard-response",
        "trial_index": 5,
        "time_elapsed": 46081,
        "internal_node_id": "0.0-5.0"
      },
      {
        "rt": 13437,
        "stimulus": "<div style='float: center;'><img src=../img/plots/binary_0.230878804398407_.png width=\"1000\"></img></div>",
        "response": "v",
        "stimulus_type": "../img/plots/binary_0.230878804398407_.png",
        "trial_type": "html-keyboard-response",
        "trial_index": 6,
        "time_elapsed": 59518,
        "internal_node_id": "0.0-6.0"
      },
      {
        "rt": 2771,
        "response": {
          "Q0": " Yes"
        },
        "question_order": [
          0
        ],
        "trial_type": "survey-multi-choice",
        "trial_index": 7,
        "time_elapsed": 62290,
        "internal_node_id": "0.0-7.0"
      },
      {
        "rt": 21764,
        "stimulus": "<div style='float: left;'><img src=../img/plots/binary_0.230878804398407_.png width=\"1000\"></img></div>",
        "slider_start": 1940,
        "response": 1965,
        "stimulus_type": "../img/plots/binary_0.230878804398407_.png",
        "trial_type": "html-slider-response",
        "trial_index": 8,
        "time_elapsed": 84056,
        "internal_node_id": "0.0-8.0"
      },
      {
        "rt": 23738,
        "response": {
          "Freeze": 6,
          "Climate": 6,
          "Temperature": 6,
          "Attention": 9
        },
        "question_order": [
          1,
          2,
          0,
          3
        ],
        "trial_type": "survey-likert",
        "trial_index": 9,
        "time_elapsed": 107790,
        "internal_node_id": "0.0-9.0"
      }
    ]
  },
  "__v": 0
},
{
  "_id": {
    "$oid": "668c22926c3fdf70df33e13b"
  },
  "data": {
    "trials": [
      {
        "success": true,
        "timeout": false,
        "failed_images": [],
        "failed_audio": [],
        "failed_video": [],
        "trial_type": "preload",
        "trial_index": 0,
        "time_elapsed": 296,
        "internal_node_id": "0.0-0.0"
      },
      {
        "rt": 3730,
        "response": {
          "Q0": " I consent to participate"
        },
        "question_order": [
          0
        ],
        "trial_type": "survey-multi-choice",
        "trial_index": 1,
        "time_elapsed": 4028,
        "internal_node_id": "0.0-1.0"
      },
      {
        "view_history": [
          {
            "page_index": 0,
            "viewing_time": 4520
          },
          {
            "page_index": 1,
            "viewing_time": 13394
          }
        ],
        "rt": 17915,
        "trial_type": "instructions",
        "trial_index": 2,
        "time_elapsed": 21945,
        "internal_node_id": "0.0-2.0"
      },
      {
        "view_history": [
          {
            "page_index": 0,
            "viewing_time": 8728
          }
        ],
        "rt": 8728,
        "stimulus_type": "temp",
