[{
  "_id": {
    "$oid": "6686cc063d0f8931f9500820"
  },
  "data": {
    "trials": [
      {
        "success": true,
        "timeout": false,
        "failed_images": [],
        "failed_audio": [],
        "failed_video": [],
        "trial_type": "preload",
        "trial_index": 0,
        "time_elapsed": 520,
        "internal_node_id": "0.0-0.0"
      },
      {
        "rt": 5870,
        "response": {
          "Q0": " I consent to participate"
        },
        "question_order": [
          0
        ],
        "trial_type": "survey-multi-choice",
        "trial_index": 1,
        "time_elapsed": 6391,
        "internal_node_id": "0.0-1.0"
      },
      {
        "view_history": [
          {
            "page_index": 0,
            "viewing_time": 5714
          },
          {
            "page_index": 1,
            "viewing_time": 16899
          }
        ],
        "rt": 22613,
        "trial_type": "instructions",
        "trial_index": 2,
        "time_elapsed": 29007,
        "internal_node_id": "0.0-2.0"
      },
      {
        "view_history": [
          {
            "page_index": 0,
            "viewing_time": 12599
          }
        ],
        "rt": 12599,
        "stimulus_type": "freeze",
        "trial_type": "instructions",
        "trial_index": 3,
        "time_elapsed": 41606,
        "internal_node_id": "0.0-3.0"
      },
      {
        "rt": 5545,
        "stimulus": "Now the graph will be shown to you",
        "response": "v",
        "trial_type": "html-keyboard-response",
        "trial_index": 4,
        "time_elapsed": 47152,
        "internal_node_id": "0.0-4.0"
      },
      {
        "rt": 17047,
        "stimulus": "<div style='float: center;'><img src=../img/plots/sarnersee_freeze.png width=\"1000\"></img></div>",
        "response": "v",
        "stimulus_type": "../img/plots/sarnersee_freeze.png",
        "trial_type": "html-keyboard-response",
        "trial_index": 5,
        "time_elapsed": 64200,
        "internal_node_id": "0.0-5.0"
      },
      {
        "rt": 11170,
        "response": {
          "Freeze": 7,
          "Temperature": 7,
          "Attention": 9,
          "Climate": 8
        },
        "question_order": [
          1,
          0,
          3,
          2
        ],
        "trial_type": "survey-likert",
        "trial_index": 6,
        "time_elapsed": 75372,
        "internal_node_id": "0.0-6.0"
      }
    ]
  },
  "__v": 0
},
{
  "_id": {
    "$oid": "6686cc5d3d0f8931f9500822"
  },
  "data": {
    "trials": [
      {
        "success": true,
        "timeout": false,
        "failed_images": [],
        "failed_audio": [],
        "failed_video": [],
        "trial_type": "preload",
        "trial_index": 0,
        "time_elapsed": 950,
        "internal_node_id": "0.0-0.0"
      },
      {
        "rt": 9859,
        "response": {
          "Q0": " I consent to participate"
        },
        "question_order": [
          0
        ],
        "trial_type": "survey-multi-choice",
        "trial_index": 1,
        "time_elapsed": 10811,
        "internal_node_id": "0.0-1.0"
      },
      {
        "view_history": [
          {
            "page_index": 0,
            "viewing_time": 5200
          },
          {
            "page_index": 1,
            "viewing_time": 21153
          }
        ],
        "rt": 26354,
        "trial_type": "instructions",
        "trial_index": 2,
        "time_elapsed": 37169,
        "internal_node_id": "0.0-2.0"
      },
      {
        "view_history": [
          {
            "page_index": 0,
            "viewing_time": 13074
          }
        ],
        "rt": 13074,
        "stimulus_type": "freeze",
        "trial_type": "instructions",
        "trial_index": 3,
        "time_elapsed": 50244,
        "internal_node_id": "0.0-3.0"
      },
      {
        "rt": 2746,
        "stimulus": "Now the graph will be shown to you",
        "response": "v",
        "trial_type": "html-keyboard-response",
        "trial_index": 4,
        "time_elapsed": 52991,
        "internal_node_id": "0.0-4.0"
      },
      {
        "rt": 19636,
        "stimulus": "<div style='float: center;'><img src=../img/plots/sarnersee_freeze.png width=\"1000\"></img></div>",
        "response": "v",
        "stimulus_type": "../img/plots/sarnersee_freeze.png",
        "trial_type": "html-keyboard-response",
        "trial_index": 5,
        "time_elapsed": 72634,
        "internal_node_id": "0.0-5.0"
      },
      {
        "rt": 23871,
        "response": {
          "Climate": 5,
          "Attention": 9,
          "Temperature": 4,
          "Freeze": 8
        },
        "question_order": [
          2,
          3,
          0,
          1
        ],
        "trial_type": "survey-likert",
        "trial_index": 6,
        "time_elapsed": 96508,
        "internal_node_id": "0.0-6.0"
      }
    ]
  },
  "__v": 0
},
{
  "_id": {
    "$oid": "6686cc703d0f8931f9500824"
  },
  "data": {
    "trials": [
      {
        "success": true,
        "timeout": false,
        "failed_images": [],
        "failed_audio": [],
        "failed_video": [],
        "trial_type": "preload",
        "trial_index": 0,
        "time_elapsed": 526,
        "internal_node_id": "0.0-0.0"
      },
      {
        "rt": 8672,
        "response": {
          "Q0": " I consent to participate"
        },
        "question_order": [
          0
        ],
        "trial_type": "survey-multi-choice",
        "trial_index": 1,
        "time_elapsed": 9200,
        "internal_node_id": "0.0-1.0"
      },
      {
        "view_history": [
          {
            "page_index": 0,
            "viewing_time": 2873
          },
          {
            "page_index": 1,
            "viewing_time": 9757
          }
        ],
        "rt": 12630,
        "trial_type": "instructions",
        "trial_index": 2,
        "time_elapsed": 21831,
        "internal_node_id": "0.0-2.0"
      },
      {
        "view_history": [
          {
            "page_index": 0,
            "viewing_time": 10126
          }
        ],
        "rt": 10126,
        "stimulus_type": "freeze",
        "trial_type": "instructions",
        "trial_index": 3,
        "time_elapsed": 31959,
        "internal_node_id": "0.0-3.0"
      },
      {
        "rt": 2601,
        "stimulus": "Now the graph will be shown to you",
        "response": "v",
        "trial_type": "html-keyboard-response",
        "trial_index": 4,
        "time_elapsed": 34562,
        "internal_node_id": "0.0-4.0"
      },
      {
        "rt": 27634,
        "stimulus": "<div style='float: center;'><img src=../img/plots/vattern_freeze.png width=\"1000\"></img></div>",
        "response": "v",
        "stimulus_type": "../img/plots/vattern_freeze.png",
        "trial_type": "html-keyboard-response",
        "trial_index": 5,
        "time_elapsed": 62196,
        "internal_node_id": "0.0-5.0"
      },
      {
        "rt": 12900,
        "response": {
          "Climate": 9,
          "Attention": 9,
          "Freeze": 9,
          "Temperature": 9
        },
        "question_order": [
          2,
          3,
          1,
          0
        ],
        "trial_type": "survey-likert",
        "trial_index": 6,
        "time_elapsed": 75100,
        "internal_node_id": "0.0-6.0"
      }
    ]
  },
  "__v": 0
},
{
  "_id": {
    "$oid": "6686cc773d0f8931f9500826"
  },
  "data": {
    "trials": [
      {
        "success": true,
        "timeout": false,
        "failed_images": [],
        "failed_audio": [],
        "failed_video": [],
        "trial_type": "preload",
        "trial_index": 0,
        "time_elapsed": 961,
        "internal_node_id": "0.0-0.0"
      },
      {
        "rt": 3460,
        "response": {
          "Q0": " I consent to participate"
        },
        "question_order": [
          0
        ],
        "trial_type": "survey-multi-choice",
        "trial_index": 1,
        "time_elapsed": 4422,
        "internal_node_id": "0.0-1.0"
      },
      {
        "view_history": [
          {
            "page_index": 0,
            "viewing_time": 3747
          },
          {
            "page_index": 1,
            "viewing_time": 14507
          }
        ],
        "rt": 18255,
        "trial_type": "instructions",
        "trial_index": 2,
        "time_elapsed": 22679,
        "internal_node_id": "0.0-2.0"
      },
      {
        "view_history": [
          {
            "page_index": 0,
            "viewing_time": 9669
          }
        ],
        "rt": 9669,
        "stimulus_type": "temp",
        "trial_type": "instructions",
        "trial_index": 3,
        "time_elapsed": 32349,
        "internal_node_id": "0.0-3.0"
      },
      {
        "rt": 5436,
        "stimulus": "Now the graph will be shown to you",
        "response": "v",
        "trial_type": "html-keyboard-response",
        "trial_index": 4,
        "time_elapsed": 37786,
        "internal_node_id": "0.0-4.0"
      },
      {
        "rt": 16599,
        "stimulus": "<div style='float: center;'><img src=../img/plots/george_temp.png width=\"1000\" ></img></div>",
        "response": "v",
        "stimulus_type": "../img/plots/george_temp.png",
        "trial_type": "html-keyboard-response",
        "trial_index": 5,
        "time_elapsed": 54386,
        "internal_node_id": "0.0-5.0"
      },
      {
        "rt": 21297,
        "response": {
          "Climate": 5,
          "Attention": 9,
          "Freeze": 5,
          "Temperature": 5
        },
        "question_order": [
          2,
          3,
          1,
          0
        ],
        "trial_type": "survey-likert",
        "trial_index": 6,
        "time_elapsed": 75685,
        "internal_node_id": "0.0-6.0"
      }
    ]
  },
  "__v": 0
},
{
  "_id": {
    "$oid": "6686cc8f3d0f8931f9500828"
  },
  "data": {
    "trials": [
      {
        "success": true,
        "timeout": false,
        "failed_images": [],
        "failed_audio": [],
        "failed_video": [],
        "trial_type": "preload",
        "trial_index": 0,
        "time_elapsed": 301,
        "internal_node_id": "0.0-0.0"
      },
      {
        "rt": 8006,
        "response": {
          "Q0": " I consent to participate"
        },
        "question_order": [
          0
        ],
        "trial_type": "survey-multi-choice",
        "trial_index": 1,
        "time_elapsed": 8308,
        "internal_node_id": "0.0-1.0"
      },
      {
        "view_history": [
          {
            "page_index": 0,
            "viewing_time": 4018
          },
          {
            "page_index": 1,
            "viewing_time": 9236
          }
        ],
        "rt": 13255,
        "trial_type": "instructions",
        "trial_index": 2,
        "time_elapsed": 21568,
        "internal_node_id": "0.0-2.0"
      },
      {
        "view_history": [
          {
            "page_index": 0,
            "viewing_time": 5127
          }
        ],
        "rt": 5127,
        "stimulus_type": "temp",
        "trial_type": "instructions",
        "trial_index": 3,
        "time_elapsed": 26695,
        "internal_node_id": "0.0-3.0"
      },
      {
        "rt": 3979,
        "stimulus": "Now the graph will be shown to you",
        "response": "v",
        "trial_type": "html-keyboard-response",
        "trial_index": 4,
        "time_elapsed": 30675,
        "internal_node_id": "0.0-4.0"
      },
      {
        "rt": 10569,
        "stimulus": "<div style='float: center;'><img src=../img/plots/vattern_temp.png width=\"1000\" ></img></div>",
        "response": "v",
        "stimulus_type": "../img/plots/vattern_temp.png",
        "trial_type": "html-keyboard-response",
        "trial_index": 5,
        "time_elapsed": 41246,
        "internal_node_id": "0.0-5.0"
      },
      {
        "rt": 18607,
        "response": {
          "Attention": 9,
          "Temperature": 6,
          "Freeze": 7,
          "Climate": 7
        },
        "question_order": [
          3,
          0,
          1,
          2
        ],
        "trial_type": "survey-likert",
        "trial_index": 6,
        "time_elapsed": 59856,
        "internal_node_id": "0.0-6.0"
      }
    ]
  },
  "__v": 0
},
{
  "_id": {
    "$oid": "6686cc933d0f8931f950082a"
  },
  "data": {
    "trials": [
      {
        "success": true,
        "timeout": false,
        "failed_images": [],
        "failed_audio": [],
        "failed_video": [],
        "trial_type": "preload",
        "trial_index": 0,
        "time_elapsed": 566,
        "internal_node_id": "0.0-0.0"
      },
      {
        "rt": 4495,
        "response": {
          "Q0": " I consent to participate"
        },
        "question_order": [
          0
        ],
        "trial_type": "survey-multi-choice",
        "trial_index": 1,
        "time_elapsed": 5062,
        "internal_node_id": "0.0-1.0"
      },
      {
        "view_history": [
          {
            "page_index": 0,
            "viewing_time": 1585
          },
          {
            "page_index": 1,
            "viewing_time": 4152
          }
        ],
        "rt": 5737,
        "trial_type": "instructions",
        "trial_index": 2,
        "time_elapsed": 10800,
        "internal_node_id": "0.0-2.0"
      },
      {
        "view_history": [
          {
            "page_index": 0,
            "viewing_time": 4313
          }
        ],
        "rt": 4313,
        "stimulus_type": "freeze",
        "trial_type": "instructions",
        "trial_index": 3,
        "time_elapsed": 15113,
        "internal_node_id": "0.0-3.0"
      },
      {
        "rt": 3720,
        "stimulus": "Now the graph will be shown to you",
        "response": "v",
        "trial_type": "html-keyboard-response",
        "trial_index": 4,
        "time_elapsed": 18834,
        "internal_node_id": "0.0-4.0"
      },
      {
        "rt": 12365,
        "stimulus": "<div style='float: center;'><img src=../img/plots/vattern_freeze.png width=\"1000\"></img></div>",
        "response": "v",
        "stimulus_type": "../img/plots/vattern_freeze.png",
        "trial_type": "html-keyboard-response",
        "trial_index": 5,
        "time_elapsed": 31200,
        "internal_node_id": "0.0-5.0"
      },
      {
        "rt": 30600,
        "response": {
          "Temperature": 7,
          "Attention": 9,
          "Freeze": 8,
          "Climate": 5
        },
        "question_order": [
          0,
          3,
          1,
          2
        ],
        "trial_type": "survey-likert",
        "trial_index": 6,
        "time_elapsed": 61801,
        "internal_node_id": "0.0-6.0"
      }
    ]
  },
  "__v": 0
},
{
  "_id": {
    "$oid": "6686cc963d0f8931f950082c"
  },
  "data": {
    "trials": [
      {
        "success": true,
        "timeout": false,
        "failed_images": [],
        "failed_audio": [],
        "failed_video": [],
        "trial_type": "preload",
        "trial_index": 0,
        "time_elapsed": 906,
        "internal_node_id": "0.0-0.0"
      },
      {
        "rt": 5545,
        "response": {
          "Q0": " I consent to participate"
        },
        "question_order": [
          0
        ],
        "trial_type": "survey-multi-choice",
        "trial_index": 1,
        "time_elapsed": 6454,
        "internal_node_id": "0.0-1.0"
      },
      {
        "view_history": [
          {
            "page_index": 0,
            "viewing_time": 8584
          },
          {
            "page_index": 1,
            "viewing_time": 18546
          }
        ],
        "rt": 27130,
        "trial_type": "instructions",
        "trial_index": 2,
        "time_elapsed": 33587,
        "internal_node_id": "0.0-2.0"
      },
      {
        "view_history": [
          {
            "page_index": 0,
            "viewing_time": 7929
          }
        ],
        "rt": 7929,
        "stimulus_type": "freeze",
        "trial_type": "instructions",
        "trial_index": 3,
        "time_elapsed": 41517,
        "internal_node_id": "0.0-3.0"
      },
      {
        "rt": 4100,
        "stimulus": "Now the graph will be shown to you",
        "response": "v",
        "trial_type": "html-keyboard-response",
        "trial_index": 4,
        "time_elapsed": 45619,
        "internal_node_id": "0.0-4.0"
      },
      {
        "rt": 11214,
        "stimulus": "<div style='float: center;'><img src=../img/plots/george_freeze.png width=\"1000\"></img></div>",
        "response": "v",
        "stimulus_type": "../img/plots/george_freeze.png",
        "trial_type": "html-keyboard-response",
        "trial_index": 5,
        "time_elapsed": 56835,
        "internal_node_id": "0.0-5.0"
      },
      {
        "rt": 26480,
        "response": {
          "Attention": 9,
          "Freeze": 7,
          "Climate": 8,
          "Temperature": 6
        },
        "question_order": [
          3,
          1,
          2,
          0
        ],
        "trial_type": "survey-likert",
        "trial_index": 6,
        "time_elapsed": 83319,
        "internal_node_id": "0.0-6.0"
      }
    ]
  },
  "__v": 0
},
{
  "_id": {
    "$oid": "6686cc993d0f8931f950082e"
  },
  "data": {
    "trials": [
      {
        "success": true,
        "timeout": false,
        "failed_images": [],
        "failed_audio": [],
        "failed_video": [],
        "trial_type": "preload",
        "trial_index": 0,
        "time_elapsed": 1001,
        "internal_node_id": "0.0-0.0"
      },
      {
        "rt": 11168,
        "response": {
          "Q0": " I consent to participate"
        },
        "question_order": [
          0
        ],
        "trial_type": "survey-multi-choice",
        "trial_index": 1,
        "time_elapsed": 12170,
        "internal_node_id": "0.0-1.0"
      },
      {
        "view_history": [
          {
            "page_index": 0,
            "viewing_time": 10706
          },
          {
            "page_index": 1,
            "viewing_time": 2094
          }
        ],
        "rt": 12801,
        "trial_type": "instructions",
        "trial_index": 2,
        "time_elapsed": 24971,
        "internal_node_id": "0.0-2.0"
      },
      {
        "view_history": [
          {
            "page_index": 0,
            "viewing_time": 1590
          }
        ],
        "rt": 1590,
        "stimulus_type": "temp",
        "trial_type": "instructions",
        "trial_index": 3,
        "time_elapsed": 26563,
        "internal_node_id": "0.0-3.0"
      },
      {
        "rt": 1557,
        "stimulus": "Now the graph will be shown to you",
        "response": "v",
        "trial_type": "html-keyboard-response",
        "trial_index": 4,
        "time_elapsed": 28121,
        "internal_node_id": "0.0-4.0"
      },
      {
        "rt": 1707,
        "stimulus": "<div style='float: center;'><img src=../img/plots/vattern_temp.png width=\"1000\" ></img></div>",
        "response": "v",
        "stimulus_type": "../img/plots/vattern_temp.png",
        "trial_type": "html-keyboard-response",
        "trial_index": 5,
        "time_elapsed": 29828,
        "internal_node_id": "0.0-5.0"
      },
      {
        "rt": 5267,
        "response": {
          "Temperature": 6,
          "Climate": 5,
          "Freeze": 6,
          "Attention": 9
        },
        "question_order": [
          0,
          2,
          1,
          3
        ],
        "trial_type": "survey-likert",
        "trial_index": 6,
        "time_elapsed": 35098,
        "internal_node_id": "0.0-6.0"
      }
    ]
  },
  "__v": 0
},
{
  "_id": {
    "$oid": "6686cca03d0f8931f9500830"
  },
  "data": {
    "trials": [
      {
        "success": true,
        "timeout": false,
        "failed_images": [],
        "failed_audio": [],
        "failed_video": [],
        "trial_type": "preload",
        "trial_index": 0,
        "time_elapsed": 485,
        "internal_node_id": "0.0-0.0"
      },
      {
        "rt": 6020,
        "response": {
          "Q0": " I consent to participate"
        },
        "question_order": [
          0
        ],
        "trial_type": "survey-multi-choice",
        "trial_index": 1,
        "time_elapsed": 6510,
        "internal_node_id": "0.0-1.0"
      },
      {
        "view_history": [
          {
            "page_index": 0,
            "viewing_time": 1663
          },
          {
            "page_index": 1,
            "viewing_time": 8422
          }
        ],
        "rt": 10086,
        "trial_type": "instructions",
        "trial_index": 2,
        "time_elapsed": 16600,
        "internal_node_id": "0.0-2.0"
      },
      {
        "view_history": [
          {
            "page_index": 0,
            "viewing_time": 5994
          }
        ],
        "rt": 5995,
        "stimulus_type": "freeze",
        "trial_type": "instructions",
        "trial_index": 3,
        "time_elapsed": 22596,
        "internal_node_id": "0.0-3.0"
      },
      {
        "rt": 4636,
        "stimulus": "Now the graph will be shown to you",
        "response": "v",
        "trial_type": "html-keyboard-response",
        "trial_index": 4,
        "time_elapsed": 27234,
        "internal_node_id": "0.0-4.0"
      },
      {
        "rt": 8643,
        "stimulus": "<div style='float: center;'><img src=../img/plots/sarnersee_freeze.png width=\"1000\"></img></div>",
        "response": "v",
        "stimulus_type": "../img/plots/sarnersee_freeze.png",
        "trial_type": "html-keyboard-response",
        "trial_index": 5,
        "time_elapsed": 35878,
        "internal_node_id": "0.0-5.0"
      },
      {
        "rt": 13295,
        "response": {
          "Temperature": 7,
          "Attention": 9,
          "Climate": 6,
          "Freeze": 7
        },
        "question_order": [
          0,
          3,
          2,
          1
        ],
        "trial_type": "survey-likert",
        "trial_index": 6,
        "time_elapsed": 49179,
        "internal_node_id": "0.0-6.0"
      }
    ]
  },
  "__v": 0
},
{
  "_id": {
    "$oid": "6686cca33d0f8931f9500832"
  },
  "data": {
    "trials": [
      {
        "success": true,
        "timeout": false,
        "failed_images": [],
        "failed_audio": [],
        "failed_video": [],
        "trial_type": "preload",
        "trial_index": 0,
        "time_elapsed": 717,
        "internal_node_id": "0.0-0.0"
      },
      {
        "rt": 2675,
        "response": {
          "Q0": " I consent to participate"
        },
        "question_order": [
          0
        ],
        "trial_type": "survey-multi-choice",
        "trial_index": 1,
        "time_elapsed": 3393,
        "internal_node_id": "0.0-1.0"
      },
      {
        "view_history": [
          {
            "page_index": 0,
            "viewing_time": 2704
          },
          {
            "page_index": 1,
            "viewing_time": 12967
          }
        ],
        "rt": 15671,
        "trial_type": "instructions",
        "trial_index": 2,
        "time_elapsed": 19067,
        "internal_node_id": "0.0-2.0"
      },
      {
        "view_history": [
          {
            "page_index": 0,
            "viewing_time": 7356
          }
        ],
        "rt": 7356,
        "stimulus_type": "temp",
        "trial_type": "instructions",
        "trial_index": 3,
        "time_elapsed": 26423,
        "internal_node_id": "0.0-3.0"
      },
      {
        "rt": 2790,
        "stimulus": "Now the graph will be shown to you",
        "response": "v",
        "trial_type": "html-keyboard-response",
        "trial_index": 4,
        "time_elapsed": 29214,
        "internal_node_id": "0.0-4.0"
      },
      {
        "rt": 9919,
        "stimulus": "<div style='float: center;'><img src=../img/plots/grand_traverse_bay_temp.png width=\"1000\" ></img></div>",
        "response": "v",
        "stimulus_type": "../img/plots/grand_traverse_bay_temp.png",
        "trial_type": "html-keyboard-response",
        "trial_index": 5,
        "time_elapsed": 39133,
        "internal_node_id": "0.0-5.0"
      },
      {
        "rt": 20313,
        "response": {
          "Temperature": 9,
          "Freeze": 9,
          "Attention": 9,
          "Climate": 9
        },
        "question_order": [
          0,
          1,
          3,
          2
        ],
        "trial_type": "survey-likert",
        "trial_index": 6,
        "time_elapsed": 59448,
        "internal_node_id": "0.0-6.0"
      }
    ]
  },
  "__v": 0
},
{
  "_id": {
    "$oid": "6686cca83d0f8931f9500834"
  },
  "data": {
    "trials": [
      {
        "success": true,
        "timeout": false,
        "failed_images": [],
        "failed_audio": [],
        "failed_video": [],
        "trial_type": "preload",
        "trial_index": 0,
        "time_elapsed": 1642,
        "internal_node_id": "0.0-0.0"
      },
      {
        "rt": 7781,
        "response": {
          "Q0": " I consent to participate"
        },
        "question_order": [
          0
        ],
        "trial_type": "survey-multi-choice",
        "trial_index": 1,
        "time_elapsed": 9425,
        "internal_node_id": "0.0-1.0"
      },
      {
        "view_history": [
          {
            "page_index": 0,
            "viewing_time": 2545
          },
          {
            "page_index": 1,
            "viewing_time": 8213
          }
        ],
        "rt": 10759,
        "trial_type": "instructions",
        "trial_index": 2,
        "time_elapsed": 20188,
        "internal_node_id": "0.0-2.0"
      },
      {
        "view_history": [
          {
            "page_index": 0,
            "viewing_time": 3791
          }
        ],
        "rt": 3791,
        "stimulus_type": "temp",
        "trial_type": "instructions",
        "trial_index": 3,
        "time_elapsed": 23981,
        "internal_node_id": "0.0-3.0"
      },
      {
        "rt": 2009,
        "stimulus": "Now the graph will be shown to you",
        "response": "v",
        "trial_type": "html-keyboard-response",
        "trial_index": 4,
        "time_elapsed": 25993,
        "internal_node_id": "0.0-4.0"
      },
      {
        "rt": 8454,
        "stimulus": "<div style='float: center;'><img src=../img/plots/suwa_temp.png width=\"1000\" ></img></div>",
        "response": "v",
        "stimulus_type": "../img/plots/suwa_temp.png",
        "trial_type": "html-keyboard-response",
        "trial_index": 5,
        "time_elapsed": 34449,
        "internal_node_id": "0.0-5.0"
      },
      {
        "rt": 26749,
        "response": {
          "Freeze": 5,
          "Temperature": 5,
          "Climate": 5,
          "Attention": 9
        },
        "question_order": [
          1,
          0,
          2,
          3
        ],
        "trial_type": "survey-likert",
        "trial_index": 6,
        "time_elapsed": 61202,
        "internal_node_id": "0.0-6.0"
      }
    ]
  },
  "__v": 0
},
{
  "_id": {
    "$oid": "6686cca93d0f8931f9500836"
  },
  "data": {
    "trials": [
      {
        "success": true,
        "timeout": false,
        "failed_images": [],
        "failed_audio": [],
        "failed_video": [],
        "trial_type": "preload",
        "trial_index": 0,
        "time_elapsed": 430,
        "internal_node_id": "0.0-0.0"
      },
      {
        "rt": 5095,
        "response": {
          "Q0": " I consent to participate"
        },
        "question_order": [
          0
        ],
        "trial_type": "survey-multi-choice",
        "trial_index": 1,
        "time_elapsed": 5528,
        "internal_node_id": "0.0-1.0"
      },
      {
        "view_history": [
          {
            "page_index": 0,
            "viewing_time": 3857
          },
          {
            "page_index": 1,
            "viewing_time": 19458
          }
        ],
        "rt": 23315,
        "trial_type": "instructions",
        "trial_index": 2,
        "time_elapsed": 28845,
        "internal_node_id": "0.0-2.0"
      },
      {
        "view_history": [
          {
            "page_index": 0,
            "viewing_time": 8731
          }
        ],
        "rt": 8732,
        "stimulus_type": "freeze",
        "trial_type": "instructions",
        "trial_index": 3,
        "time_elapsed": 37578,
        "internal_node_id": "0.0-3.0"
      },
      {
        "rt": 2894,
        "stimulus": "Now the graph will be shown to you",
        "response": "v",
        "trial_type": "html-keyboard-response",
        "trial_index": 4,
        "time_elapsed": 40474,
        "internal_node_id": "0.0-4.0"
      },
      {
        "rt": 20055,
        "stimulus": "<div style='float: center;'><img src=../img/plots/grand_traverse_bay_freeze.png width=\"1000\"></img></div>",
        "response": "v",
        "stimulus_type": "../img/plots/grand_traverse_bay_freeze.png",
        "trial_type": "html-keyboard-response",
        "trial_index": 5,
        "time_elapsed": 60529,
        "internal_node_id": "0.0-5.0"
      },
      {
        "rt": 28177,
        "response": {
          "Temperature": 7,
          "Attention": 9,
          "Climate": 7,
          "Freeze": 7
        },
        "question_order": [
          0,
          3,
          2,
          1
        ],
        "trial_type": "survey-likert",
        "trial_index": 6,
        "time_elapsed": 88708,
        "internal_node_id": "0.0-6.0"
      }
    ]
  },
  "__v": 0
},
{
  "_id": {
    "$oid": "6686cca93d0f8931f9500838"
  },
  "data": {
    "trials": [
      {
        "success": true,
        "timeout": false,
        "failed_images": [],
        "failed_audio": [],
        "failed_video": [],
        "trial_type": "preload",
        "trial_index": 0,
        "time_elapsed": 330,
        "internal_node_id": "0.0-0.0"
      },
      {
        "rt": 3287,
        "response": {
          "Q0": " I consent to participate"
        },
        "question_order": [
          0
        ],
        "trial_type": "survey-multi-choice",
        "trial_index": 1,
        "time_elapsed": 3618,
        "internal_node_id": "0.0-1.0"
      },
      {
        "view_history": [
          {
            "page_index": 0,
            "viewing_time": 4423
          },
          {
            "page_index": 1,
            "viewing_time": 14836
          }
        ],
        "rt": 19259,
        "trial_type": "instructions",
        "trial_index": 2,
        "time_elapsed": 22879,
        "internal_node_id": "0.0-2.0"
      },
      {
        "view_history": [
          {
            "page_index": 0,
            "viewing_time": 12795
          }
        ],
        "rt": 12795,
        "stimulus_type": "freeze",
        "trial_type": "instructions",
        "trial_index": 3,
        "time_elapsed": 35674,
        "internal_node_id": "0.0-3.0"
      },
      {
        "rt": 2906,
        "stimulus": "Now the graph will be shown to you",
        "response": "v",
        "trial_type": "html-keyboard-response",
        "trial_index": 4,
        "time_elapsed": 38581,
        "internal_node_id": "0.0-4.0"
      },
      {
        "rt": 13575,
        "stimulus": "<div style='float: center;'><img src=../img/plots/vattern_freeze.png width=\"1000\"></img></div>",
        "response": "v",
        "stimulus_type": "../img/plots/vattern_freeze.png",
        "trial_type": "html-keyboard-response",
        "trial_index": 5,
        "time_elapsed": 52157,
        "internal_node_id": "0.0-5.0"
      },
      {
        "rt": 16418,
        "response": {
          "Temperature": 8,
          "Attention": 9,
          "Climate": 8,
          "Freeze": 8
        },
        "question_order": [
          0,
          3,
          2,
          1
        ],
        "trial_type": "survey-likert",
        "trial_index": 6,
        "time_elapsed": 68575,
        "internal_node_id": "0.0-6.0"
      }
    ]
  },
  "__v": 0
},
{
  "_id": {
    "$oid": "6686ccaa3d0f8931f950083a"
  },
  "data": {
    "trials": [
      {
        "success": true,
        "timeout": false,
        "failed_images": [],
        "failed_audio": [],
        "failed_video": [],
        "trial_type": "preload",
        "trial_index": 0,
        "time_elapsed": 3572,
        "internal_node_id": "0.0-0.0"
      },
      {
        "rt": 3596,
        "response": {
          "Q0": " I consent to participate"
        },
        "question_order": [
          0
        ],
        "trial_type": "survey-multi-choice",
        "trial_index": 1,
        "time_elapsed": 7168,
        "internal_node_id": "0.0-1.0"
      },
      {
        "view_history": [
          {
            "page_index": 0,
            "viewing_time": 2921
          },
          {
            "page_index": 1,
            "viewing_time": 12373
          }
        ],
        "rt": 15294,
        "trial_type": "instructions",
        "trial_index": 2,
        "time_elapsed": 22464,
        "internal_node_id": "0.0-2.0"
      },
      {
        "view_history": [
          {
            "page_index": 0,
            "viewing_time": 7349
          }
        ],
        "rt": 7349,
        "stimulus_type": "freeze",
        "trial_type": "instructions",
        "trial_index": 3,
        "time_elapsed": 29813,
        "internal_node_id": "0.0-3.0"
      },
      {
        "rt": 2843,
        "stimulus": "Now the graph will be shown to you",
        "response": "v",
        "trial_type": "html-keyboard-response",
        "trial_index": 4,
        "time_elapsed": 32658,
        "internal_node_id": "0.0-4.0"
      },
      {
        "rt": 6586,
        "stimulus": "<div style='float: center;'><img src=../img/plots/george_freeze.png width=\"1000\"></img></div>",
        "response": "v",
        "stimulus_type": "../img/plots/george_freeze.png",
        "trial_type": "html-keyboard-response",
        "trial_index": 5,
        "time_elapsed": 39244,
        "internal_node_id": "0.0-5.0"
      },
      {
        "rt": 16758,
        "response": {
          "Climate": 8,
          "Attention": 9,
          "Freeze": 6,
          "Temperature": 7
        },
        "question_order": [
          2,
          3,
          1,
          0
        ],
        "trial_type": "survey-likert",
        "trial_index": 6,
        "time_elapsed": 56004,
        "internal_node_id": "0.0-6.0"
      }
    ]
  },
  "__v": 0
},
{
  "_id": {
    "$oid": "6686ccab3d0f8931f950083c"
  },
  "data": {
    "trials": [
      {
        "success": true,
        "timeout": false,
        "failed_images": [],
        "failed_audio": [],
        "failed_video": [],
        "trial_type": "preload",
        "trial_index": 0,
        "time_elapsed": 379,
        "internal_node_id": "0.0-0.0"
      },
      {
        "rt": 3236,
        "response": {
          "Q0": " I consent to participate"
        },
        "question_order": [
          0
        ],
        "trial_type": "survey-multi-choice",
        "trial_index": 1,
        "time_elapsed": 3616,
        "internal_node_id": "0.0-1.0"
      },
      {
        "view_history": [
          {
            "page_index": 0,
            "viewing_time": 1479
          },
          {
            "page_index": 1,
            "viewing_time": 4679
          }
        ],
        "rt": 6159,
        "trial_type": "instructions",
        "trial_index": 2,
        "time_elapsed": 9778,
        "internal_node_id": "0.0-2.0"
      },
      {
        "view_history": [
          {
            "page_index": 0,
            "viewing_time": 7700
          }
        ],
        "rt": 7701,
        "stimulus_type": "temp",
        "trial_type": "instructions",
        "trial_index": 3,
        "time_elapsed": 17479,
        "internal_node_id": "0.0-3.0"
      },
      {
        "rt": 7663,
        "stimulus": "Now the graph will be shown to you",
        "response": "v",
        "trial_type": "html-keyboard-response",
        "trial_index": 4,
        "time_elapsed": 25143,
        "internal_node_id": "0.0-4.0"
      },
      {
        "rt": 28650,
        "stimulus": "<div style='float: center;'><img src=../img/plots/grand_traverse_bay_temp.png width=\"1000\" ></img></div>",
        "response": "v",
        "stimulus_type": "../img/plots/grand_traverse_bay_temp.png",
        "trial_type": "html-keyboard-response",
        "trial_index": 5,
        "time_elapsed": 53793,
        "internal_node_id": "0.0-5.0"
      },
      {
        "rt": 8193,
        "response": {
          "Attention": 9,
          "Climate": 6,
          "Freeze": 7,
          "Temperature": 7
        },
        "question_order": [
          3,
          2,
          1,
          0
        ],
        "trial_type": "survey-likert",
        "trial_index": 6,
        "time_elapsed": 61988,
        "internal_node_id": "0.0-6.0"
      }
    ]
  },
  "__v": 0
},
{
  "_id": {
    "$oid": "6686ccac3d0f8931f950083e"
  },
  "data": {
    "trials": [
      {
        "success": true,
        "timeout": false,
        "failed_images": [],
        "failed_audio": [],
        "failed_video": [],
        "trial_type": "preload",
        "trial_index": 0,
        "time_elapsed": 363,
        "internal_node_id": "0.0-0.0"
      },
      {
        "rt": 4150,
        "response": {
          "Q0": " I consent to participate"
        },
        "question_order": [
          0
        ],
        "trial_type": "survey-multi-choice",
        "trial_index": 1,
        "time_elapsed": 4514,
        "internal_node_id": "0.0-1.0"
      },
      {
        "view_history": [
          {
            "page_index": 0,
            "viewing_time": 5089
          },
          {
            "page_index": 1,
            "viewing_time": 17168
          }
        ],
        "rt": 22257,
        "trial_type": "instructions",
        "trial_index": 2,
        "time_elapsed": 26772,
        "internal_node_id": "0.0-2.0"
      },
      {
        "view_history": [
          {
            "page_index": 0,
            "viewing_time": 14816
          }
        ],
        "rt": 14816,
        "stimulus_type": "temp",
        "trial_type": "instructions",
        "trial_index": 3,
        "time_elapsed": 41589,
        "internal_node_id": "0.0-3.0"
      },
      {
        "rt": 3113,
        "stimulus": "Now the graph will be shown to you",
        "response": "v",
        "trial_type": "html-keyboard-response",
        "trial_index": 4,
        "time_elapsed": 44703,
        "internal_node_id": "0.0-4.0"
      },
      {
        "rt": 11990,
        "stimulus": "<div style='float: center;'><img src=../img/plots/george_temp.png width=\"1000\" ></img></div>",
        "response": "v",
        "stimulus_type": "../img/plots/george_temp.png",
        "trial_type": "html-keyboard-response",
        "trial_index": 5,
        "time_elapsed": 56696,
        "internal_node_id": "0.0-5.0"
      },
      {
        "rt": 26607,
        "response": {
          "Temperature": 5,
          "Climate": 6,
          "Freeze": 6,
          "Attention": 9
        },
        "question_order": [
          0,
          2,
          1,
          3
        ],
        "trial_type": "survey-likert",
        "trial_index": 6,
        "time_elapsed": 83304,
        "internal_node_id": "0.0-6.0"
      }
    ]
  },
  "__v": 0
},
{
  "_id": {
    "$oid": "6686ccb73d0f8931f9500840"
  },
  "data": {
    "trials": [
      {
        "success": true,
        "timeout": false,
        "failed_images": [],
        "failed_audio": [],
        "failed_video": [],
        "trial_type": "preload",
        "trial_index": 0,
        "time_elapsed": 1373,
        "internal_node_id": "0.0-0.0"
      },
      {
        "rt": 6433,
        "response": {
          "Q0": " I consent to participate"
        },
        "question_order": [
          0
        ],
        "trial_type": "survey-multi-choice",
        "trial_index": 1,
        "time_elapsed": 7809,
        "internal_node_id": "0.0-1.0"
      },
      {
        "view_history": [
          {
            "page_index": 0,
            "viewing_time": 2682
          },
          {
            "page_index": 1,
            "viewing_time": 15184
          }
        ],
        "rt": 17867,
        "trial_type": "instructions",
        "trial_index": 2,
        "time_elapsed": 25680,
        "internal_node_id": "0.0-2.0"
      },
      {
        "view_history": [
          {
            "page_index": 0,
            "viewing_time": 9620
          }
        ],
        "rt": 9620,
        "stimulus_type": "freeze",
        "trial_type": "instructions",
        "trial_index": 3,
        "time_elapsed": 35301,
        "internal_node_id": "0.0-3.0"
      },
      {
        "rt": 3828,
        "stimulus": "Now the graph will be shown to you",
        "response": "v",
        "trial_type": "html-keyboard-response",
        "trial_index": 4,
        "time_elapsed": 39130,
        "internal_node_id": "0.0-4.0"
      },
      {
        "rt": 11069,
        "stimulus": "<div style='float: center;'><img src=../img/plots/grand_traverse_bay_freeze.png width=\"1000\"></img></div>",
        "response": "v",
        "stimulus_type": "../img/plots/grand_traverse_bay_freeze.png",
        "trial_type": "html-keyboard-response",
        "trial_index": 5,
        "time_elapsed": 50201,
        "internal_node_id": "0.0-5.0"
      },
      {
        "rt": 22169,
        "response": {
          "Temperature": 5,
          "Climate": 5,
          "Freeze": 5,
          "Attention": 9
        },
        "question_order": [
          0,
          2,
          1,
          3
        ],
        "trial_type": "survey-likert",
        "trial_index": 6,
        "time_elapsed": 72374,
        "internal_node_id": "0.0-6.0"
      }
    ]
  },
  "__v": 0
},
{
  "_id": {
    "$oid": "6686ccb73d0f8931f9500842"
  },
  "data": {
    "trials": [
      {
        "success": true,
        "timeout": false,
        "failed_images": [],
        "failed_audio": [],
        "failed_video": [],
        "trial_type": "preload",
        "trial_index": 0,
        "time_elapsed": 713,
        "internal_node_id": "0.0-0.0"
      },
      {
        "rt": 3408,
        "response": {
          "Q0": " I consent to participate"
        },
        "question_order": [
          0
        ],
        "trial_type": "survey-multi-choice",
        "trial_index": 1,
        "time_elapsed": 4122,
        "internal_node_id": "0.0-1.0"
      },
      {
        "view_history": [
          {
            "page_index": 0,
            "viewing_time": 3766
          },
          {
            "page_index": 1,
            "viewing_time": 12113
          }
        ],
        "rt": 15879,
        "trial_type": "instructions",
        "trial_index": 2,
        "time_elapsed": 20003,
        "internal_node_id": "0.0-2.0"
      },
      {
        "view_history": [
          {
            "page_index": 0,
            "viewing_time": 5895
          }
        ],
        "rt": 5896,
        "stimulus_type": "freeze",
        "trial_type": "instructions",
        "trial_index": 3,
        "time_elapsed": 25899,
        "internal_node_id": "0.0-3.0"
      },
      {
        "rt": 5056,
        "stimulus": "Now the graph will be shown to you",
        "response": "v",
        "trial_type": "html-keyboard-response",
        "trial_index": 4,
        "time_elapsed": 30956,
        "internal_node_id": "0.0-4.0"
      },
      {
        "rt": 26016,
        "stimulus": "<div style='float: center;'><img src=../img/plots/grand_traverse_bay_freeze.png width=\"1000\"></img></div>",
        "response": "v",
        "stimulus_type": "../img/plots/grand_traverse_bay_freeze.png",
        "trial_type": "html-keyboard-response",
        "trial_index": 5,
        "time_elapsed": 56972,
        "internal_node_id": "0.0-5.0"
      },
      {
        "rt": 16262,
        "response": {
          "Temperature": 6,
          "Freeze": 7,
          "Attention": 9,
          "Climate": 7
        },
        "question_order": [
          0,
          1,
          3,
          2
        ],
        "trial_type": "survey-likert",
        "trial_index": 6,
        "time_elapsed": 73236,
        "internal_node_id": "0.0-6.0"
      }
    ]
  },
  "__v": 0
},
{
  "_id": {
    "$oid": "6686ccb83d0f8931f9500844"
  },
  "data": {
    "trials": [
      {
        "success": true,
        "timeout": false,
        "failed_images": [],
        "failed_audio": [],
        "failed_video": [],
        "trial_type": "preload",
        "trial_index": 0,
        "time_elapsed": 240,
        "internal_node_id": "0.0-0.0"
      },
      {
        "rt": 3909,
        "response": {
          "Q0": " I consent to participate"
        },
        "question_order": [
          0
        ],
        "trial_type": "survey-multi-choice",
        "trial_index": 1,
        "time_elapsed": 4149,
        "internal_node_id": "0.0-1.0"
      },
      {
        "view_history": [
          {
            "page_index": 0,
            "viewing_time": 1911
          },
          {
            "page_index": 1,
            "viewing_time": 7468
          }
        ],
        "rt": 9379,
        "trial_type": "instructions",
        "trial_index": 2,
        "time_elapsed": 13530,
        "internal_node_id": "0.0-2.0"
      },
      {
        "view_history": [
          {
            "page_index": 0,
            "viewing_time": 7854
          }
        ],
        "rt": 7854,
        "stimulus_type": "freeze",
        "trial_type": "instructions",
        "trial_index": 3,
        "time_elapsed": 21386,
        "internal_node_id": "0.0-3.0"
      },
      {
        "rt": 1975,
        "stimulus": "Now the graph will be shown to you",
        "response": "v",
        "trial_type": "html-keyboard-response",
        "trial_index": 4,
        "time_elapsed": 23364,
        "internal_node_id": "0.0-4.0"
      },
      {
        "rt": 5840,
        "stimulus": "<div style='float: center;'><img src=../img/plots/suwa_freeze.png width=\"1000\"></img></div>",
        "response": "v",
        "stimulus_type": "../img/plots/suwa_freeze.png",
        "trial_type": "html-keyboard-response",
        "trial_index": 5,
        "time_elapsed": 29204,
        "internal_node_id": "0.0-5.0"
      },
      {
        "rt": 13747,
        "response": {
          "Climate": 7,
          "Attention": 9,
          "Freeze": 8,
          "Temperature": 8
        },
        "question_order": [
          2,
          3,
          1,
          0
        ],
        "trial_type": "survey-likert",
        "trial_index": 6,
        "time_elapsed": 42955,
        "internal_node_id": "0.0-6.0"
      }
    ]
  },
  "__v": 0
},
{
  "_id": {
    "$oid": "6686ccb83d0f8931f9500846"
  },
  "data": {
    "trials": [
      {
        "success": true,
        "timeout": false,
        "failed_images": [],
        "failed_audio": [],
        "failed_video": [],
        "trial_type": "preload",
        "trial_index": 0,
        "time_elapsed": 1204,
        "internal_node_id": "0.0-0.0"
      },
      {
        "rt": 2995,
        "response": {
          "Q0": " I consent to participate"
        },
        "question_order": [
          0
        ],
        "trial_type": "survey-multi-choice",
        "trial_index": 1,
        "time_elapsed": 4200,
        "internal_node_id": "0.0-1.0"
      },
      {
        "view_history": [
          {
            "page_index": 0,
            "viewing_time": 1346
          },
          {
            "page_index": 1,
            "viewing_time": 1905
          }
        ],
        "rt": 3251,
        "trial_type": "instructions",
        "trial_index": 2,
        "time_elapsed": 7453,
        "internal_node_id": "0.0-2.0"
      },
      {
        "view_history": [
          {
            "page_index": 0,
            "viewing_time": 2490
          }
        ],
        "rt": 2491,
        "stimulus_type": "freeze",
        "trial_type": "instructions",
        "trial_index": 3,
        "time_elapsed": 9944,
        "internal_node_id": "0.0-3.0"
      },
      {
        "rt": 1776,
        "stimulus": "Now the graph will be shown to you",
        "response": "v",
        "trial_type": "html-keyboard-response",
        "trial_index": 4,
        "time_elapsed": 11721,
        "internal_node_id": "0.0-4.0"
      },
      {
        "rt": 2321,
        "stimulus": "<div style='float: center;'><img src=../img/plots/george_freeze.png width=\"1000\"></img></div>",
        "response": "v",
        "stimulus_type": "../img/plots/george_freeze.png",
        "trial_type": "html-keyboard-response",
        "trial_index": 5,
        "time_elapsed": 14043,
        "internal_node_id": "0.0-5.0"
      },
      {
        "rt": 9208,
        "response": {
          "Temperature": 2,
          "Freeze": 4,
          "Climate": 4,
          "Attention": 9
        },
        "question_order": [
          0,
          1,
          2,
          3
        ],
        "trial_type": "survey-likert",
        "trial_index": 6,
        "time_elapsed": 23255,
        "internal_node_id": "0.0-6.0"
      }
    ]
  },
  "__v": 0
},
{
  "_id": {
    "$oid": "6686ccb93d0f8931f9500848"
  },
  "data": {
    "trials": [
      {
        "success": true,
        "timeout": false,
        "failed_images": [],
        "failed_audio": [],
        "failed_video": [],
        "trial_type": "preload",
        "trial_index": 0,
        "time_elapsed": 198,
        "internal_node_id": "0.0-0.0"
      },
      {
        "rt": 7064,
        "response": {
          "Q0": " I consent to participate"
        },
        "question_order": [
          0
        ],
        "trial_type": "survey-multi-choice",
        "trial_index": 1,
        "time_elapsed": 7262,
        "internal_node_id": "0.0-1.0"
      },
      {
        "view_history": [
          {
            "page_index": 0,
            "viewing_time": 2327
          },
          {
            "page_index": 1,
            "viewing_time": 19428
          }
        ],
        "rt": 21756,
        "trial_type": "instructions",
        "trial_index": 2,
        "time_elapsed": 29019,
        "internal_node_id": "0.0-2.0"
      },
      {
        "view_history": [
          {
            "page_index": 0,
            "viewing_time": 4067
          }
        ],
        "rt": 4067,
        "stimulus_type": "temp",
        "trial_type": "instructions",
        "trial_index": 3,
        "time_elapsed": 33087,
        "internal_node_id": "0.0-3.0"
      },
      {
        "rt": 2213,
        "stimulus": "Now the graph will be shown to you",
        "response": "v",
        "trial_type": "html-keyboard-response",
        "trial_index": 4,
        "time_elapsed": 35301,
        "internal_node_id": "0.0-4.0"
      },
      {
        "rt": 21986,
        "stimulus": "<div style='float: center;'><img src=../img/plots/grand_traverse_bay_temp.png width=\"1000\" ></img></div>",
        "response": "v",
        "stimulus_type": "../img/plots/grand_traverse_bay_temp.png",
        "trial_type": "html-keyboard-response",
        "trial_index": 5,
        "time_elapsed": 57288,
        "internal_node_id": "0.0-5.0"
      },
      {
        "rt": 15054,
        "response": {
          "Freeze": 6,
          "Climate": 6,
          "Attention": 9,
          "Temperature": 6
        },
        "question_order": [
          1,
          2,
          3,
          0
        ],
        "trial_type": "survey-likert",
        "trial_index": 6,
        "time_elapsed": 72343,
        "internal_node_id": "0.0-6.0"
      }
    ]
  },
  "__v": 0
},
{
  "_id": {
    "$oid": "6686ccba3d0f8931f950084a"
  },
  "data": {
    "trials": [
      {
        "success": true,
        "timeout": false,
        "failed_images": [],
        "failed_audio": [],
        "failed_video": [],
        "trial_type": "preload",
        "trial_index": 0,
        "time_elapsed": 584,
        "internal_node_id": "0.0-0.0"
      },
      {
        "rt": 16990,
        "response": {
          "Q0": " I consent to participate"
        },
        "question_order": [
          0
        ],
        "trial_type": "survey-multi-choice",
        "trial_index": 1,
        "time_elapsed": 17575,
        "internal_node_id": "0.0-1.0"
      },
      {
        "view_history": [
          {
            "page_index": 0,
            "viewing_time": 1826
          },
          {
            "page_index": 1,
            "viewing_time": 12935
          }
        ],
        "rt": 14762,
        "trial_type": "instructions",
        "trial_index": 2,
        "time_elapsed": 32339,
        "internal_node_id": "0.0-2.0"
      },
      {
        "view_history": [
          {
            "page_index": 0,
            "viewing_time": 3761
          }
        ],
        "rt": 3761,
        "stimulus_type": "temp",
        "trial_type": "instructions",
        "trial_index": 3,
        "time_elapsed": 36100,
        "internal_node_id": "0.0-3.0"
      },
      {
        "rt": 2129,
        "stimulus": "Now the graph will be shown to you",
        "response": "v",
        "trial_type": "html-keyboard-response",
        "trial_index": 4,
        "time_elapsed": 38231,
        "internal_node_id": "0.0-4.0"
      },
      {
        "rt": 8297,
        "stimulus": "<div style='float: center;'><img src=../img/plots/sarnersee_temp.png width=\"1000\" ></img></div>",
        "response": "v",
        "stimulus_type": "../img/plots/sarnersee_temp.png",
        "trial_type": "html-keyboard-response",
        "trial_index": 5,
        "time_elapsed": 46529,
        "internal_node_id": "0.0-5.0"
      },
      {
        "rt": 22665,
        "response": {
          "Temperature": 7,
          "Climate": 8,
          "Freeze": 7,
          "Attention": 9
        },
        "question_order": [
          0,
          2,
          1,
          3
        ],
        "trial_type": "survey-likert",
        "trial_index": 6,
        "time_elapsed": 69197,
        "internal_node_id": "0.0-6.0"
      }
    ]
  },
  "__v": 0
},
{
  "_id": {
    "$oid": "6686ccbf3d0f8931f950084c"
  },
  "data": {
    "trials": [
      {
        "success": true,
        "timeout": false,
        "failed_images": [],
        "failed_audio": [],
        "failed_video": [],
        "trial_type": "preload",
        "trial_index": 0,
        "time_elapsed": 401,
        "internal_node_id": "0.0-0.0"
      },
      {
        "rt": 3216,
        "response": {
          "Q0": " I consent to participate"
        },
        "question_order": [
          0
        ],
        "trial_type": "survey-multi-choice",
        "trial_index": 1,
        "time_elapsed": 3618,
        "internal_node_id": "0.0-1.0"
      },
      {
        "view_history": [
          {
            "page_index": 0,
            "viewing_time": 3588
          },
          {
            "page_index": 1,
            "viewing_time": 10728
          }
        ],
        "rt": 14316,
        "trial_type": "instructions",
        "trial_index": 2,
        "time_elapsed": 17937,
        "internal_node_id": "0.0-2.0"
      },
      {
        "view_history": [
          {
            "page_index": 0,
            "viewing_time": 5519
          }
        ],
        "rt": 5519,
        "stimulus_type": "temp",
        "trial_type": "instructions",
        "trial_index": 3,
        "time_elapsed": 23457,
        "internal_node_id": "0.0-3.0"
      },
      {
        "rt": 2971,
        "stimulus": "Now the graph will be shown to you",
        "response": "v",
        "trial_type": "html-keyboard-response",
        "trial_index": 4,
        "time_elapsed": 26429,
        "internal_node_id": "0.0-4.0"
      },
      {
        "rt": 8322,
        "stimulus": "<div style='float: center;'><img src=../img/plots/grand_traverse_bay_temp.png width=\"1000\" ></img></div>",
        "response": "v",
        "stimulus_type": "../img/plots/grand_traverse_bay_temp.png",
        "trial_type": "html-keyboard-response",
        "trial_index": 5,
        "time_elapsed": 34753,
        "internal_node_id": "0.0-5.0"
      },
      {
        "rt": 15949,
        "response": {
          "Climate": 6,
          "Temperature": 6,
          "Freeze": 6,
          "Attention": 9
        },
        "question_order": [
          2,
          0,
          1,
          3
        ],
        "trial_type": "survey-likert",
        "trial_index": 6,
        "time_elapsed": 50699,
        "internal_node_id": "0.0-6.0"
      }
    ]
  },
  "__v": 0
},
{
  "_id": {
    "$oid": "6686ccc63d0f8931f950084e"
  },
  "data": {
    "trials": [
      {
        "success": true,
        "timeout": false,
        "failed_images": [],
        "failed_audio": [],
        "failed_video": [],
        "trial_type": "preload",
        "trial_index": 0,
        "time_elapsed": 459,
        "internal_node_id": "0.0-0.0"
      },
      {
        "rt": 5457,
        "response": {
          "Q0": " I consent to participate"
        },
        "question_order": [
          0
        ],
        "trial_type": "survey-multi-choice",
        "trial_index": 1,
        "time_elapsed": 5918,
        "internal_node_id": "0.0-1.0"
      },
      {
        "view_history": [
          {
            "page_index": 0,
            "viewing_time": 29122
          },
          {
            "page_index": 1,
            "viewing_time": 32206
          }
        ],
        "rt": 61328,
        "trial_type": "instructions",
        "trial_index": 2,
        "time_elapsed": 67249,
        "internal_node_id": "0.0-2.0"
      },
      {
        "view_history": [
          {
            "page_index": 0,
            "viewing_time": 12441
          }
        ],
        "rt": 12441,
        "stimulus_type": "temp",
        "trial_type": "instructions",
        "trial_index": 3,
        "time_elapsed": 79690,
        "internal_node_id": "0.0-3.0"
      },
      {
        "rt": 4866,
        "stimulus": "Now the graph will be shown to you",
        "response": "v",
        "trial_type": "html-keyboard-response",
        "trial_index": 4,
        "time_elapsed": 84557,
        "internal_node_id": "0.0-4.0"
      },
      {
        "rt": 33852,
        "stimulus": "<div style='float: center;'><img src=../img/plots/sarnersee_temp.png width=\"1000\" ></img></div>",
        "response": "v",
        "stimulus_type": "../img/plots/sarnersee_temp.png",
        "trial_type": "html-keyboard-response",
        "trial_index": 5,
        "time_elapsed": 118411,
        "internal_node_id": "0.0-5.0"
      },
      {
        "rt": 42658,
        "response": {
          "Temperature": 7,
          "Attention": 9,
          "Freeze": 7,
          "Climate": 6
        },
        "question_order": [
          0,
          3,
          1,
          2
        ],
        "trial_type": "survey-likert",
        "trial_index": 6,
        "time_elapsed": 161075,
        "internal_node_id": "0.0-6.0"
      }
    ]
  },
  "__v": 0
},
{
  "_id": {
    "$oid": "6686ccc63d0f8931f9500850"
  },
  "data": {
    "trials": [
      {
        "success": true,
        "timeout": false,
        "failed_images": [],
        "failed_audio": [],
        "failed_video": [],
        "trial_type": "preload",
        "trial_index": 0,
        "time_elapsed": 510,
        "internal_node_id": "0.0-0.0"
      },
      {
        "rt": 9322,
        "response": {
          "Q0": " I consent to participate"
        },
        "question_order": [
          0
        ],
        "trial_type": "survey-multi-choice",
        "trial_index": 1,
        "time_elapsed": 9833,
        "internal_node_id": "0.0-1.0"
      },
      {
        "view_history": [
          {
            "page_index": 0,
            "viewing_time": 4141
          },
          {
            "page_index": 1,
            "viewing_time": 18280
          }
        ],
        "rt": 22421,
        "trial_type": "instructions",
        "trial_index": 2,
        "time_elapsed": 32258,
        "internal_node_id": "0.0-2.0"
      },
      {
        "view_history": [
          {
            "page_index": 0,
            "viewing_time": 5631
          }
        ],
        "rt": 5631,
        "stimulus_type": "temp",
        "trial_type": "instructions",
        "trial_index": 3,
        "time_elapsed": 37890,
        "internal_node_id": "0.0-3.0"
      },
      {
        "rt": 3002,
        "stimulus": "Now the graph will be shown to you",
        "response": "v",
        "trial_type": "html-keyboard-response",
        "trial_index": 4,
        "time_elapsed": 40894,
        "internal_node_id": "0.0-4.0"
      },
      {
        "rt": 8378,
        "stimulus": "<div style='float: center;'><img src=../img/plots/suwa_temp.png width=\"1000\" ></img></div>",
        "response": "v",
        "stimulus_type": "../img/plots/suwa_temp.png",
        "trial_type": "html-keyboard-response",
        "trial_index": 5,
        "time_elapsed": 49272,
        "internal_node_id": "0.0-5.0"
      },
      {
        "rt": 18292,
        "response": {
          "Freeze": 6,
          "Temperature": 6,
          "Climate": 7,
          "Attention": 9
        },
        "question_order": [
          1,
          0,
          2,
          3
        ],
        "trial_type": "survey-likert",
        "trial_index": 6,
        "time_elapsed": 67567,
        "internal_node_id": "0.0-6.0"
      }
    ]
  },
  "__v": 0
},
{
  "_id": {
    "$oid": "6686ccc83d0f8931f9500852"
  },
  "data": {
    "trials": [
      {
        "success": true,
        "timeout": false,
        "failed_images": [],
        "failed_audio": [],
        "failed_video": [],
        "trial_type": "preload",
        "trial_index": 0,
        "time_elapsed": 435,
        "internal_node_id": "0.0-0.0"
      },
      {
        "rt": 3358,
        "response": {
          "Q0": " I consent to participate"
        },
        "question_order": [
          0
        ],
        "trial_type": "survey-multi-choice",
        "trial_index": 1,
        "time_elapsed": 3794,
        "internal_node_id": "0.0-1.0"
      },
      {
        "view_history": [
          {
            "page_index": 0,
            "viewing_time": 1828
          },
          {
            "page_index": 1,
            "viewing_time": 10685
          }
        ],
        "rt": 12513,
        "trial_type": "instructions",
        "trial_index": 2,
        "time_elapsed": 16309,
        "internal_node_id": "0.0-2.0"
      },
      {
        "view_history": [
          {
            "page_index": 0,
            "viewing_time": 7030
          }
        ],
        "rt": 7030,
        "stimulus_type": "temp",
        "trial_type": "instructions",
        "trial_index": 3,
        "time_elapsed": 23340,
        "internal_node_id": "0.0-3.0"
      },
      {
        "rt": 3276,
        "stimulus": "Now the graph will be shown to you",
        "response": "v",
        "trial_type": "html-keyboard-response",
        "trial_index": 4,
        "time_elapsed": 26617,
        "internal_node_id": "0.0-4.0"
      },
      {
        "rt": 6787,
        "stimulus": "<div style='float: center;'><img src=../img/plots/suwa_temp.png width=\"1000\" ></img></div>",
        "response": "v",
        "stimulus_type": "../img/plots/suwa_temp.png",
        "trial_type": "html-keyboard-response",
        "trial_index": 5,
        "time_elapsed": 33404,
        "internal_node_id": "0.0-5.0"
      },
      {
        "rt": 27243,
        "response": {
          "Freeze": 7,
          "Attention": 9,
          "Climate": 8,
          "Temperature": 7
        },
        "question_order": [
          1,
          3,
          2,
          0
        ],
        "trial_type": "survey-likert",
        "trial_index": 6,
        "time_elapsed": 60649,
        "internal_node_id": "0.0-6.0"
      }
    ]
  },
  "__v": 0
},
{
  "_id": {
    "$oid": "6686ccc83d0f8931f9500854"
  },
  "data": {
    "trials": [
      {
        "success": true,
        "timeout": false,
        "failed_images": [],
        "failed_audio": [],
        "failed_video": [],
        "trial_type": "preload",
        "trial_index": 0,
        "time_elapsed": 910,
        "internal_node_id": "0.0-0.0"
      },
      {
        "rt": 3613,
        "response": {
          "Q0": " I consent to participate"
        },
        "question_order": [
          0
        ],
        "trial_type": "survey-multi-choice",
        "trial_index": 1,
        "time_elapsed": 4524,
        "internal_node_id": "0.0-1.0"
      },
      {
        "view_history": [
          {
            "page_index": 0,
            "viewing_time": 3445
          },
          {
            "page_index": 1,
            "viewing_time": 11251
          }
        ],
        "rt": 14696,
        "trial_type": "instructions",
        "trial_index": 2,
        "time_elapsed": 19231,
        "internal_node_id": "0.0-2.0"
      },
      {
        "view_history": [
          {
            "page_index": 0,
            "viewing_time": 11185
          }
        ],
        "rt": 11185,
        "stimulus_type": "freeze",
        "trial_type": "instructions",
        "trial_index": 3,
        "time_elapsed": 30424,
        "internal_node_id": "0.0-3.0"
      },
      {
        "rt": 2923,
        "stimulus": "Now the graph will be shown to you",
        "response": "v",
        "trial_type": "html-keyboard-response",
        "trial_index": 4,
        "time_elapsed": 33349,
        "internal_node_id": "0.0-4.0"
      },
      {
        "rt": 7657,
        "stimulus": "<div style='float: center;'><img src=../img/plots/george_freeze.png width=\"1000\"></img></div>",
        "response": "v",
        "stimulus_type": "../img/plots/george_freeze.png",
        "trial_type": "html-keyboard-response",
        "trial_index": 5,
        "time_elapsed": 41009,
        "internal_node_id": "0.0-5.0"
      },
      {
        "rt": 23151,
        "response": {
          "Attention": 9,
          "Freeze": 9,
          "Climate": 9,
          "Temperature": 8
        },
        "question_order": [
          3,
          1,
          2,
          0
        ],
        "trial_type": "survey-likert",
        "trial_index": 6,
        "time_elapsed": 64165,
        "internal_node_id": "0.0-6.0"
      }
    ]
  },
  "__v": 0
},
{
  "_id": {
    "$oid": "6686cccc3d0f8931f9500856"
  },
  "data": {
    "trials": [
      {
        "success": true,
        "timeout": false,
        "failed_images": [],
        "failed_audio": [],
        "failed_video": [],
        "trial_type": "preload",
        "trial_index": 0,
        "time_elapsed": 268,
        "internal_node_id": "0.0-0.0"
      },
      {
        "rt": 3048,
        "response": {
          "Q0": " I consent to participate"
        },
        "question_order": [
          0
        ],
        "trial_type": "survey-multi-choice",
        "trial_index": 1,
        "time_elapsed": 3317,
        "internal_node_id": "0.0-1.0"
      },
      {
        "view_history": [
          {
            "page_index": 0,
            "viewing_time": 1717
          },
          {
            "page_index": 1,
            "viewing_time": 12494
          }
        ],
        "rt": 14211,
        "trial_type": "instructions",
        "trial_index": 2,
        "time_elapsed": 17532,
        "internal_node_id": "0.0-2.0"
      },
      {
        "view_history": [
          {
            "page_index": 0,
            "viewing_time": 10914
          }
        ],
        "rt": 10914,
        "stimulus_type": "freeze",
        "trial_type": "instructions",
        "trial_index": 3,
        "time_elapsed": 28447,
        "internal_node_id": "0.0-3.0"
      },
      {
        "rt": 3512,
        "stimulus": "Now the graph will be shown to you",
        "response": "v",
        "trial_type": "html-keyboard-response",
        "trial_index": 4,
        "time_elapsed": 31961,
        "internal_node_id": "0.0-4.0"
      },
      {
        "rt": 12482,
        "stimulus": "<div style='float: center;'><img src=../img/plots/vattern_freeze.png width=\"1000\"></img></div>",
        "response": "v",
        "stimulus_type": "../img/plots/vattern_freeze.png",
        "trial_type": "html-keyboard-response",
        "trial_index": 5,
        "time_elapsed": 44445,
        "internal_node_id": "0.0-5.0"
      },
      {
        "rt": 18834,
        "response": {
          "Temperature": 6,
          "Climate": 6,
          "Attention": 9,
          "Freeze": 7
        },
        "question_order": [
          0,
          2,
          3,
          1
        ],
        "trial_type": "survey-likert",
        "trial_index": 6,
        "time_elapsed": 63282,
        "internal_node_id": "0.0-6.0"
      }
    ]
  },
  "__v": 0
},
{
  "_id": {
    "$oid": "6686cccc3d0f8931f9500858"
  },
  "data": {
    "trials": [
      {
        "success": true,
        "timeout": false,
        "failed_images": [],
        "failed_audio": [],
        "failed_video": [],
        "trial_type": "preload",
        "trial_index": 0,
        "time_elapsed": 327,
        "internal_node_id": "0.0-0.0"
      },
      {
        "rt": 4088,
        "response": {
          "Q0": " I consent to participate"
        },
        "question_order": [
          0
        ],
        "trial_type": "survey-multi-choice",
        "trial_index": 1,
        "time_elapsed": 4416,
        "internal_node_id": "0.0-1.0"
      },
      {
        "view_history": [
          {
            "page_index": 0,
            "viewing_time": 4190
          },
          {
            "page_index": 1,
            "viewing_time": 14712
          }
        ],
        "rt": 18902,
        "trial_type": "instructions",
        "trial_index": 2,
        "time_elapsed": 23319,
        "internal_node_id": "0.0-2.0"
      },
      {
        "view_history": [
          {
            "page_index": 0,
            "viewing_time": 14112
          }
        ],
        "rt": 14112,
        "stimulus_type": "freeze",
        "trial_type": "instructions",
        "trial_index": 3,
        "time_elapsed": 37431,
        "internal_node_id": "0.0-3.0"
      },
      {
        "rt": 2688,
        "stimulus": "Now the graph will be shown to you",
        "response": "v",
        "trial_type": "html-keyboard-response",
        "trial_index": 4,
        "time_elapsed": 40120,
        "internal_node_id": "0.0-4.0"
      },
      {
        "rt": 7567,
        "stimulus": "<div style='float: center;'><img src=../img/plots/sarnersee_freeze.png width=\"1000\"></img></div>",
        "response": "v",
        "stimulus_type": "../img/plots/sarnersee_freeze.png",
        "trial_type": "html-keyboard-response",
        "trial_index": 5,
        "time_elapsed": 47689,
        "internal_node_id": "0.0-5.0"
      },
      {
        "rt": 24286,
        "response": {
          "Temperature": 6,
          "Freeze": 9,
          "Attention": 9,
          "Climate": 9
        },
        "question_order": [
          0,
          1,
          3,
          2
        ],
        "trial_type": "survey-likert",
        "trial_index": 6,
        "time_elapsed": 71977,
        "internal_node_id": "0.0-6.0"
      }
    ]
  },
  "__v": 0
},
{
  "_id": {
    "$oid": "6686cccf3d0f8931f950085a"
  },
  "data": {
    "trials": [
      {
        "success": true,
        "timeout": false,
        "failed_images": [],
        "failed_audio": [],
        "failed_video": [],
        "trial_type": "preload",
        "trial_index": 0,
        "time_elapsed": 364,
        "internal_node_id": "0.0-0.0"
      },
      {
        "rt": 4224,
        "response": {
          "Q0": " I consent to participate"
        },
        "question_order": [
          0
        ],
        "trial_type": "survey-multi-choice",
        "trial_index": 1,
        "time_elapsed": 4591,
        "internal_node_id": "0.0-1.0"
      },
      {
        "view_history": [
          {
            "page_index": 0,
            "viewing_time": 4299
          },
          {
            "page_index": 1,
            "viewing_time": 14659
          }
        ],
        "rt": 18958,
        "trial_type": "instructions",
        "trial_index": 2,
        "time_elapsed": 23551,
        "internal_node_id": "0.0-2.0"
      },
      {
        "view_history": [
          {
            "page_index": 0,
            "viewing_time": 11239
          }
        ],
        "rt": 11240,
        "stimulus_type": "freeze",
        "trial_type": "instructions",
        "trial_index": 3,
        "time_elapsed": 34792,
        "internal_node_id": "0.0-3.0"
      },
      {
        "rt": 5162,
        "stimulus": "Now the graph will be shown to you",
        "response": "v",
        "trial_type": "html-keyboard-response",
        "trial_index": 4,
        "time_elapsed": 39955,
        "internal_node_id": "0.0-4.0"
      },
      {
        "rt": 14704,
        "stimulus": "<div style='float: center;'><img src=../img/plots/vattern_freeze.png width=\"1000\"></img></div>",
        "response": "v",
        "stimulus_type": "../img/plots/vattern_freeze.png",
        "trial_type": "html-keyboard-response",
        "trial_index": 5,
        "time_elapsed": 54660,
        "internal_node_id": "0.0-5.0"
      },
      {
        "rt": 18109,
        "response": {
          "Temperature": 7,
          "Climate": 7,
          "Attention": 9,
          "Freeze": 8
        },
        "question_order": [
          0,
          2,
          3,
          1
        ],
        "trial_type": "survey-likert",
        "trial_index": 6,
        "time_elapsed": 72771,
        "internal_node_id": "0.0-6.0"
      }
    ]
  },
  "__v": 0
},
{
  "_id": {
    "$oid": "6686ccd03d0f8931f950085c"
  },
  "data": {
    "trials": [
      {
        "success": true,
        "timeout": false,
        "failed_images": [],
        "failed_audio": [],
        "failed_video": [],
        "trial_type": "preload",
        "trial_index": 0,
        "time_elapsed": 540,
        "internal_node_id": "0.0-0.0"
      },
      {
        "rt": 44487,
        "response": {
          "Q0": " I consent to participate"
        },
        "question_order": [
          0
        ],
        "trial_type": "survey-multi-choice",
        "trial_index": 1,
        "time_elapsed": 45030,
        "internal_node_id": "0.0-1.0"
      },
      {
        "view_history": [
          {
            "page_index": 0,
            "viewing_time": 3094
          },
          {
            "page_index": 1,
            "viewing_time": 10633
          }
        ],
        "rt": 13728,
        "trial_type": "instructions",
        "trial_index": 2,
        "time_elapsed": 58767,
        "internal_node_id": "0.0-2.0"
      },
      {
        "view_history": [
          {
            "page_index": 0,
            "viewing_time": 10773
          }
        ],
        "rt": 10773,
        "stimulus_type": "freeze",
        "trial_type": "instructions",
        "trial_index": 3,
        "time_elapsed": 69541,
        "internal_node_id": "0.0-3.0"
      },
      {
        "rt": 2553,
        "stimulus": "Now the graph will be shown to you",
        "response": "v",
        "trial_type": "html-keyboard-response",
        "trial_index": 4,
        "time_elapsed": 72095,
        "internal_node_id": "0.0-4.0"
      },
      {
        "rt": 9150,
        "stimulus": "<div style='float: center;'><img src=../img/plots/suwa_freeze.png width=\"1000\"></img></div>",
        "response": "v",
        "stimulus_type": "../img/plots/suwa_freeze.png",
        "trial_type": "html-keyboard-response",
        "trial_index": 5,
        "time_elapsed": 81247,
        "internal_node_id": "0.0-5.0"
      },
      {
        "rt": 14806,
        "response": {
          "Temperature": 8,
          "Freeze": 9,
          "Attention": 9,
          "Climate": 7
        },
        "question_order": [
          0,
          1,
          3,
          2
        ],
        "trial_type": "survey-likert",
        "trial_index": 6,
        "time_elapsed": 96057,
        "internal_node_id": "0.0-6.0"
      }
    ]
  },
  "__v": 0
},
{
  "_id": {
    "$oid": "6686ccd03d0f8931f950085e"
  },
  "data": {
    "trials": [
      {
        "success": true,
        "timeout": false,
        "failed_images": [],
        "failed_audio": [],
        "failed_video": [],
        "trial_type": "preload",
        "trial_index": 0,
        "time_elapsed": 443,
        "internal_node_id": "0.0-0.0"
      },
      {
        "rt": 3740,
        "response": {
          "Q0": " I consent to participate"
        },
        "question_order": [
          0
        ],
        "trial_type": "survey-multi-choice",
        "trial_index": 1,
        "time_elapsed": 4186,
        "internal_node_id": "0.0-1.0"
      },
      {
        "view_history": [
          {
            "page_index": 0,
            "viewing_time": 5151
          },
          {
            "page_index": 1,
            "viewing_time": 11015
          }
        ],
        "rt": 16167,
        "trial_type": "instructions",
        "trial_index": 2,
        "time_elapsed": 20361,
        "internal_node_id": "0.0-2.0"
      },
      {
        "view_history": [
          {
            "page_index": 0,
            "viewing_time": 10769
          }
        ],
        "rt": 10770,
        "stimulus_type": "freeze",
        "trial_type": "instructions",
        "trial_index": 3,
        "time_elapsed": 31133,
        "internal_node_id": "0.0-3.0"
      },
      {
        "rt": 2948,
        "stimulus": "Now the graph will be shown to you",
        "response": "v",
        "trial_type": "html-keyboard-response",
        "trial_index": 4,
        "time_elapsed": 34083,
        "internal_node_id": "0.0-4.0"
      },
      {
        "rt": 10495,
        "stimulus": "<div style='float: center;'><img src=../img/plots/suwa_freeze.png width=\"1000\"></img></div>",
        "response": "v",
        "stimulus_type": "../img/plots/suwa_freeze.png",
        "trial_type": "html-keyboard-response",
        "trial_index": 5,
        "time_elapsed": 44580,
        "internal_node_id": "0.0-5.0"
      },
      {
        "rt": 12975,
        "response": {
          "Climate": 6,
          "Attention": 9,
          "Temperature": 6,
          "Freeze": 6
        },
        "question_order": [
          2,
          3,
          0,
          1
        ],
        "trial_type": "survey-likert",
        "trial_index": 6,
        "time_elapsed": 57561,
        "internal_node_id": "0.0-6.0"
      }
    ]
  },
  "__v": 0
},
{
  "_id": {
    "$oid": "6686ccd13d0f8931f9500860"
  },
  "data": {
    "trials": [
      {
        "success": true,
        "timeout": false,
        "failed_images": [],
        "failed_audio": [],
        "failed_video": [],
        "trial_type": "preload",
        "trial_index": 0,
        "time_elapsed": 321,
        "internal_node_id": "0.0-0.0"
      },
      {
        "rt": 5227,
        "response": {
          "Q0": " I consent to participate"
        },
        "question_order": [
          0
        ],
        "trial_type": "survey-multi-choice",
        "trial_index": 1,
        "time_elapsed": 5549,
        "internal_node_id": "0.0-1.0"
      },
      {
        "view_history": [
          {
            "page_index": 0,
            "viewing_time": 5462
          },
          {
            "page_index": 1,
            "viewing_time": 13992
          }
        ],
        "rt": 19454,
        "trial_type": "instructions",
        "trial_index": 2,
        "time_elapsed": 25004,
        "internal_node_id": "0.0-2.0"
      },
      {
        "view_history": [
          {
            "page_index": 0,
            "viewing_time": 8327
          }
        ],
        "rt": 8328,
        "stimulus_type": "temp",
        "trial_type": "instructions",
        "trial_index": 3,
        "time_elapsed": 33332,
        "internal_node_id": "0.0-3.0"
      },
      {
        "rt": 3864,
        "stimulus": "Now the graph will be shown to you",
        "response": "v",
        "trial_type": "html-keyboard-response",
        "trial_index": 4,
        "time_elapsed": 37197,
        "internal_node_id": "0.0-4.0"
      },
      {
        "rt": 16840,
        "stimulus": "<div style='float: center;'><img src=../img/plots/suwa_temp.png width=\"1000\" ></img></div>",
        "response": "v",
        "stimulus_type": "../img/plots/suwa_temp.png",
        "trial_type": "html-keyboard-response",
        "trial_index": 5,
        "time_elapsed": 54038,
        "internal_node_id": "0.0-5.0"
      },
      {
        "rt": 24899,
        "response": {
          "Freeze": 6,
          "Climate": 8,
          "Attention": 9,
          "Temperature": 7
        },
        "question_order": [
          1,
          2,
          3,
          0
        ],
        "trial_type": "survey-likert",
        "trial_index": 6,
        "time_elapsed": 78938,
        "internal_node_id": "0.0-6.0"
      }
    ]
  },
  "__v": 0
},
{
  "_id": {
    "$oid": "6686ccd43d0f8931f9500862"
  },
  "data": {
    "trials": [
      {
        "success": true,
        "timeout": false,
        "failed_images": [],
        "failed_audio": [],
        "failed_video": [],
        "trial_type": "preload",
        "trial_index": 0,
        "time_elapsed": 2060,
        "internal_node_id": "0.0-0.0"
      },
      {
        "rt": 4975,
        "response": {
          "Q0": " I consent to participate"
        },
        "question_order": [
          0
        ],
        "trial_type": "survey-multi-choice",
        "trial_index": 1,
        "time_elapsed": 7036,
        "internal_node_id": "0.0-1.0"
      },
      {
        "view_history": [
          {
            "page_index": 0,
            "viewing_time": 4286
          },
          {
            "page_index": 1,
            "viewing_time": 13336
          }
        ],
        "rt": 17622,
        "trial_type": "instructions",
        "trial_index": 2,
        "time_elapsed": 24660,
        "internal_node_id": "0.0-2.0"
      },
      {
        "view_history": [
          {
            "page_index": 0,
            "viewing_time": 9063
          }
        ],
        "rt": 9063,
        "stimulus_type": "temp",
        "trial_type": "instructions",
        "trial_index": 3,
        "time_elapsed": 33724,
        "internal_node_id": "0.0-3.0"
      },
      {
        "rt": 2855,
        "stimulus": "Now the graph will be shown to you",
        "response": "v",
        "trial_type": "html-keyboard-response",
        "trial_index": 4,
        "time_elapsed": 36580,
        "internal_node_id": "0.0-4.0"
      },
      {
        "rt": 8287,
        "stimulus": "<div style='float: center;'><img src=../img/plots/sarnersee_temp.png width=\"1000\" ></img></div>",
        "response": "v",
        "stimulus_type": "../img/plots/sarnersee_temp.png",
        "trial_type": "html-keyboard-response",
        "trial_index": 5,
        "time_elapsed": 44881,
        "internal_node_id": "0.0-5.0"
      },
      {
        "rt": 18263,
        "response": {
          "Temperature": 7,
          "Attention": 9,
          "Freeze": 6,
          "Climate": 7
        },
        "question_order": [
          0,
          3,
          1,
          2
        ],
        "trial_type": "survey-likert",
        "trial_index": 6,
        "time_elapsed": 63147,
        "internal_node_id": "0.0-6.0"
      }
    ]
  },
  "__v": 0
},
{
  "_id": {
    "$oid": "6686ccd53d0f8931f9500864"
  },
  "data": {
    "trials": [
      {
        "success": true,
        "timeout": false,
        "failed_images": [],
        "failed_audio": [],
        "failed_video": [],
        "trial_type": "preload",
        "trial_index": 0,
        "time_elapsed": 1295,
        "internal_node_id": "0.0-0.0"
      },
      {
        "rt": 8793,
        "response": {
          "Q0": " I consent to participate"
        },
        "question_order": [
          0
        ],
        "trial_type": "survey-multi-choice",
        "trial_index": 1,
        "time_elapsed": 10089,
        "internal_node_id": "0.0-1.0"
      },
      {
        "view_history": [
          {
            "page_index": 0,
            "viewing_time": 1743
          },
          {
            "page_index": 1,
            "viewing_time": 7605
          }
        ],
        "rt": 9348,
        "trial_type": "instructions",
        "trial_index": 2,
        "time_elapsed": 19443,
        "internal_node_id": "0.0-2.0"
      },
      {
        "view_history": [
          {
            "page_index": 0,
            "viewing_time": 6531
          }
        ],
        "rt": 6531,
        "stimulus_type": "temp",
        "trial_type": "instructions",
        "trial_index": 3,
        "time_elapsed": 25974,
        "internal_node_id": "0.0-3.0"
      },
      {
        "rt": 2208,
        "stimulus": "Now the graph will be shown to you",
        "response": "v",
        "trial_type": "html-keyboard-response",
        "trial_index": 4,
        "time_elapsed": 28183,
        "internal_node_id": "0.0-4.0"
      },
      {
        "rt": 4727,
        "stimulus": "<div style='float: center;'><img src=../img/plots/grand_traverse_bay_temp.png width=\"1000\" ></img></div>",
        "response": "v",
        "stimulus_type": "../img/plots/grand_traverse_bay_temp.png",
        "trial_type": "html-keyboard-response",
        "trial_index": 5,
        "time_elapsed": 32911,
        "internal_node_id": "0.0-5.0"
      },
      {
        "rt": 12708,
        "response": {
          "Climate": 7,
          "Temperature": 7,
          "Attention": 9,
          "Freeze": 7
        },
        "question_order": [
          2,
          0,
          3,
          1
        ],
        "trial_type": "survey-likert",
        "trial_index": 6,
        "time_elapsed": 45625,
        "internal_node_id": "0.0-6.0"
      }
    ]
  },
  "__v": 0
},
{
  "_id": {
    "$oid": "6686ccd53d0f8931f9500866"
  },
  "data": {
    "trials": [
      {
        "success": true,
        "timeout": false,
        "failed_images": [],
        "failed_audio": [],
        "failed_video": [],
        "trial_type": "preload",
        "trial_index": 0,
        "time_elapsed": 443,
        "internal_node_id": "0.0-0.0"
      },
      {
        "rt": 2919,
        "response": {
          "Q0": " I consent to participate"
        },
        "question_order": [
          0
        ],
        "trial_type": "survey-multi-choice",
        "trial_index": 1,
        "time_elapsed": 3365,
        "internal_node_id": "0.0-1.0"
      },
      {
        "view_history": [
          {
            "page_index": 0,
            "viewing_time": 1847
          },
          {
            "page_index": 1,
            "viewing_time": 13884
          }
        ],
        "rt": 15731,
        "trial_type": "instructions",
        "trial_index": 2,
        "time_elapsed": 19099,
        "internal_node_id": "0.0-2.0"
      },
      {
        "view_history": [
          {
            "page_index": 0,
            "viewing_time": 9301
          }
        ],
        "rt": 9301,
        "stimulus_type": "temp",
        "trial_type": "instructions",
        "trial_index": 3,
        "time_elapsed": 28400,
        "internal_node_id": "0.0-3.0"
      },
      {
        "rt": 3416,
        "stimulus": "Now the graph will be shown to you",
        "response": "v",
        "trial_type": "html-keyboard-response",
        "trial_index": 4,
        "time_elapsed": 31817,
        "internal_node_id": "0.0-4.0"
      },
      {
        "rt": 10574,
        "stimulus": "<div style='float: center;'><img src=../img/plots/george_temp.png width=\"1000\" ></img></div>",
        "response": "v",
        "stimulus_type": "../img/plots/george_temp.png",
        "trial_type": "html-keyboard-response",
        "trial_index": 5,
        "time_elapsed": 42392,
        "internal_node_id": "0.0-5.0"
      },
      {
        "rt": 20892,
        "response": {
          "Attention": 9,
          "Climate": 2,
          "Freeze": 2,
          "Temperature": 4
        },
        "question_order": [
          3,
          2,
          1,
          0
        ],
        "trial_type": "survey-likert",
        "trial_index": 6,
        "time_elapsed": 63288,
        "internal_node_id": "0.0-6.0"
      }
    ]
  },
  "__v": 0
},
{
  "_id": {
    "$oid": "6686ccd83d0f8931f9500868"
  },
  "data": {
    "trials": [
      {
        "success": true,
        "timeout": false,
        "failed_images": [],
        "failed_audio": [],
        "failed_video": [],
        "trial_type": "preload",
        "trial_index": 0,
        "time_elapsed": 402,
        "internal_node_id": "0.0-0.0"
      },
      {
        "rt": 28736,
        "response": {
          "Q0": " I consent to participate"
        },
        "question_order": [
          0
        ],
        "trial_type": "survey-multi-choice",
        "trial_index": 1,
        "time_elapsed": 29139,
        "internal_node_id": "0.0-1.0"
      },
      {
        "view_history": [
          {
            "page_index": 0,
            "viewing_time": 1755
          },
          {
            "page_index": 1,
            "viewing_time": 22105
          }
        ],
        "rt": 23860,
        "trial_type": "instructions",
        "trial_index": 2,
        "time_elapsed": 53002,
        "internal_node_id": "0.0-2.0"
      },
      {
        "view_history": [
          {
            "page_index": 0,
            "viewing_time": 6111
          }
        ],
        "rt": 6111,
        "stimulus_type": "freeze",
        "trial_type": "instructions",
        "trial_index": 3,
        "time_elapsed": 59114,
        "internal_node_id": "0.0-3.0"
      },
      {
        "rt": 1528,
        "stimulus": "Now the graph will be shown to you",
        "response": "v",
        "trial_type": "html-keyboard-response",
        "trial_index": 4,
        "time_elapsed": 60643,
        "internal_node_id": "0.0-4.0"
      },
      {
        "rt": 4255,
        "stimulus": "<div style='float: center;'><img src=../img/plots/sarnersee_freeze.png width=\"1000\"></img></div>",
        "response": "v",
        "stimulus_type": "../img/plots/sarnersee_freeze.png",
        "trial_type": "html-keyboard-response",
        "trial_index": 5,
        "time_elapsed": 64899,
        "internal_node_id": "0.0-5.0"
      },
      {
        "rt": 8079,
        "response": {
          "Freeze": 9,
          "Attention": 9,
          "Climate": 9,
          "Temperature": 9
        },
        "question_order": [
          1,
          3,
          2,
          0
        ],
        "trial_type": "survey-likert",
        "trial_index": 6,
        "time_elapsed": 72980,
        "internal_node_id": "0.0-6.0"
      }
    ]
  },
  "__v": 0
},
{
  "_id": {
    "$oid": "6686ccd93d0f8931f950086a"
  },
  "data": {
    "trials": [
      {
        "success": true,
        "timeout": false,
        "failed_images": [],
        "failed_audio": [],
        "failed_video": [],
        "trial_type": "preload",
        "trial_index": 0,
        "time_elapsed": 772,
        "internal_node_id": "0.0-0.0"
      },
      {
        "rt": 4985,
        "response": {
          "Q0": " I consent to participate"
        },
        "question_order": [
          0
        ],
        "trial_type": "survey-multi-choice",
        "trial_index": 1,
        "time_elapsed": 5759,
        "internal_node_id": "0.0-1.0"
      },
      {
        "view_history": [
          {
            "page_index": 0,
            "viewing_time": 3829
          },
          {
            "page_index": 1,
            "viewing_time": 17114
          }
        ],
        "rt": 20943,
        "trial_type": "instructions",
        "trial_index": 2,
        "time_elapsed": 26705,
        "internal_node_id": "0.0-2.0"
      },
      {
        "view_history": [
          {
            "page_index": 0,
            "viewing_time": 8419
          }
        ],
        "rt": 8419,
        "stimulus_type": "temp",
        "trial_type": "instructions",
        "trial_index": 3,
        "time_elapsed": 35125,
        "internal_node_id": "0.0-3.0"
      },
      {
        "rt": 2470,
        "stimulus": "Now the graph will be shown to you",
        "response": "v",
        "trial_type": "html-keyboard-response",
        "trial_index": 4,
        "time_elapsed": 37595,
        "internal_node_id": "0.0-4.0"
      },
      {
        "rt": 15351,
        "stimulus": "<div style='float: center;'><img src=../img/plots/suwa_temp.png width=\"1000\" ></img></div>",
        "response": "v",
        "stimulus_type": "../img/plots/suwa_temp.png",
        "trial_type": "html-keyboard-response",
        "trial_index": 5,
        "time_elapsed": 52948,
        "internal_node_id": "0.0-5.0"
      },
      {
        "rt": 36324,
        "response": {
          "Climate": 6,
          "Attention": 9,
          "Freeze": 3,
          "Temperature": 6
        },
        "question_order": [
          2,
          3,
          1,
          0
        ],
        "trial_type": "survey-likert",
        "trial_index": 6,
        "time_elapsed": 89275,
        "internal_node_id": "0.0-6.0"
      }
    ]
  },
  "__v": 0
},
{
  "_id": {
    "$oid": "6686ccdb3d0f8931f950086c"
  },
  "data": {
    "trials": [
      {
        "success": true,
        "timeout": false,
        "failed_images": [],
        "failed_audio": [],
        "failed_video": [],
        "trial_type": "preload",
        "trial_index": 0,
        "time_elapsed": 876,
        "internal_node_id": "0.0-0.0"
      },
      {
        "rt": 8686,
        "response": {
          "Q0": " I consent to participate"
        },
        "question_order": [
          0
        ],
        "trial_type": "survey-multi-choice",
        "trial_index": 1,
        "time_elapsed": 9564,
        "internal_node_id": "0.0-1.0"
      },
      {
        "view_history": [
          {
            "page_index": 0,
            "viewing_time": 3917
          },
          {
            "page_index": 1,
            "viewing_time": 12240
          }
        ],
        "rt": 16157,
        "trial_type": "instructions",
        "trial_index": 2,
        "time_elapsed": 25730,
        "internal_node_id": "0.0-2.0"
      },
      {
        "view_history": [
          {
            "page_index": 0,
            "viewing_time": 6511
          }
        ],
        "rt": 6512,
        "stimulus_type": "temp",
        "trial_type": "instructions",
        "trial_index": 3,
        "time_elapsed": 32242,
        "internal_node_id": "0.0-3.0"
      },
      {
        "rt": 4529,
        "stimulus": "Now the graph will be shown to you",
        "response": "v",
        "trial_type": "html-keyboard-response",
        "trial_index": 4,
        "time_elapsed": 36773,
        "internal_node_id": "0.0-4.0"
      },
      {
        "rt": 14901,
        "stimulus": "<div style='float: center;'><img src=../img/plots/sarnersee_temp.png width=\"1000\" ></img></div>",
        "response": "v",
        "stimulus_type": "../img/plots/sarnersee_temp.png",
        "trial_type": "html-keyboard-response",
        "trial_index": 5,
        "time_elapsed": 51675,
        "internal_node_id": "0.0-5.0"
      },
      {
        "rt": 25908,
        "response": {
          "Attention": 9,
          "Freeze": 6,
          "Temperature": 7,
          "Climate": 6
        },
        "question_order": [
          3,
          1,
          0,
          2
        ],
        "trial_type": "survey-likert",
        "trial_index": 6,
        "time_elapsed": 77587,
        "internal_node_id": "0.0-6.0"
      }
    ]
  },
  "__v": 0
},
{
  "_id": {
    "$oid": "6686ccdb3d0f8931f950086e"
  },
  "data": {
    "trials": [
      {
        "success": true,
        "timeout": false,
        "failed_images": [],
        "failed_audio": [],
        "failed_video": [],
        "trial_type": "preload",
        "trial_index": 0,
        "time_elapsed": 348,
        "internal_node_id": "0.0-0.0"
      },
      {
        "rt": 3587,
        "response": {
          "Q0": " I consent to participate"
        },
        "question_order": [
          0
        ],
        "trial_type": "survey-multi-choice",
        "trial_index": 1,
        "time_elapsed": 3939,
        "internal_node_id": "0.0-1.0"
      },
      {
        "view_history": [
          {
            "page_index": 0,
            "viewing_time": 2855
          },
          {
            "page_index": 1,
            "viewing_time": 15908
          }
        ],
        "rt": 18764,
        "trial_type": "instructions",
        "trial_index": 2,
        "time_elapsed": 22706,
        "internal_node_id": "0.0-2.0"
      },
      {
        "view_history": [
          {
            "page_index": 0,
            "viewing_time": 7345
          }
        ],
        "rt": 7345,
        "stimulus_type": "temp",
        "trial_type": "instructions",
        "trial_index": 3,
        "time_elapsed": 30052,
        "internal_node_id": "0.0-3.0"
      },
      {
        "rt": 3716,
        "stimulus": "Now the graph will be shown to you",
        "response": "v",
        "trial_type": "html-keyboard-response",
        "trial_index": 4,
        "time_elapsed": 33771,
        "internal_node_id": "0.0-4.0"
      },
      {
        "rt": 14413,
        "stimulus": "<div style='float: center;'><img src=../img/plots/george_temp.png width=\"1000\" ></img></div>",
        "response": "v",
        "stimulus_type": "../img/plots/george_temp.png",
        "trial_type": "html-keyboard-response",
        "trial_index": 5,
        "time_elapsed": 48188,
        "internal_node_id": "0.0-5.0"
      },
      {
        "rt": 22814,
        "response": {
          "Freeze": 6,
          "Temperature": 6,
          "Attention": 9,
          "Climate": 6
        },
        "question_order": [
          1,
          0,
          3,
          2
        ],
        "trial_type": "survey-likert",
        "trial_index": 6,
        "time_elapsed": 71052,
        "internal_node_id": "0.0-6.0"
      }
    ]
  },
  "__v": 0
},
{
  "_id": {
    "$oid": "6686ccdc3d0f8931f9500870"
  },
  "data": {
    "trials": [
      {
        "success": true,
        "timeout": false,
        "failed_images": [],
        "failed_audio": [],
        "failed_video": [],
        "trial_type": "preload",
        "trial_index": 0,
        "time_elapsed": 3641,
        "internal_node_id": "0.0-0.0"
      },
      {
        "rt": 5096,
        "response": {
          "Q0": " I consent to participate"
        },
        "question_order": [
          0
        ],
        "trial_type": "survey-multi-choice",
        "trial_index": 1,
        "time_elapsed": 8739,
        "internal_node_id": "0.0-1.0"
      },
      {
        "view_history": [
          {
            "page_index": 0,
            "viewing_time": 18444
          },
          {
            "page_index": 1,
            "viewing_time": 18025
          }
        ],
        "rt": 36470,
        "trial_type": "instructions",
        "trial_index": 2,
        "time_elapsed": 45210,
        "internal_node_id": "0.0-2.0"
      },
      {
        "view_history": [
          {
            "page_index": 0,
            "viewing_time": 9406
          }
        ],
        "rt": 9407,
        "stimulus_type": "freeze",
        "trial_type": "instructions",
        "trial_index": 3,
        "time_elapsed": 54617,
        "internal_node_id": "0.0-3.0"
      },
      {
        "rt": 22086,
        "stimulus": "Now the graph will be shown to you",
        "response": "v",
        "trial_type": "html-keyboard-response",
        "trial_index": 4,
        "time_elapsed": 76705,
        "internal_node_id": "0.0-4.0"
      },
      {
        "rt": 11544,
        "stimulus": "<div style='float: center;'><img src=../img/plots/george_freeze.png width=\"1000\"></img></div>",
        "response": "v",
        "stimulus_type": "../img/plots/george_freeze.png",
        "trial_type": "html-keyboard-response",
        "trial_index": 5,
        "time_elapsed": 88249,
        "internal_node_id": "0.0-5.0"
      },
      {
        "rt": 44009,
        "response": {
          "Freeze": 5,
