[{
  "_id": {
    "$oid": "66c9e68a6eecf1068c7bce09"
  },
  "data": {
    "trials": [
      {
        "success": true,
        "timeout": false,
        "failed_images": [],
        "failed_audio": [],
        "failed_video": [],
        "trial_type": "preload",
        "trial_index": 0,
        "time_elapsed": 2611,
        "internal_node_id": "0.0-0.0"
      },
      {
        "rt": 3740,
        "response": {
          "Q0": " I consent to participate"
        },
        "question_order": [
          0
        ],
        "trial_type": "survey-multi-choice",
        "trial_index": 1,
        "time_elapsed": 6352,
        "internal_node_id": "0.0-1.0"
      },
      {
        "view_history": [
          {
            "page_index": 0,
            "viewing_time": 1251
          },
          {
            "page_index": 1,
            "viewing_time": 7016
          }
        ],
        "rt": 8268,
        "trial_type": "instructions",
        "trial_index": 2,
        "time_elapsed": 14621,
        "internal_node_id": "0.0-2.0"
      },
      {
        "view_history": [
          {
            "page_index": 0,
            "viewing_time": 1799
          }
        ],
        "rt": 1799,
        "stimulus_type": "temp",
        "trial_type": "instructions",
        "trial_index": 3,
        "time_elapsed": 16421,
        "internal_node_id": "0.0-3.0"
      },
      {
        "rt": 2057,
        "stimulus": "Now the graph will be shown to you",
        "response": "v",
        "trial_type": "html-keyboard-response",
        "trial_index": 4,
        "time_elapsed": 18479,
        "internal_node_id": "0.0-4.0"
      },
      {
        "rt": 8929,
        "stimulus": "<div style='float: center;'><img src=../img/plots/george_temp.png width=\"1000\" ></img></div>",
        "response": "v",
        "stimulus_type": "../img/plots/george_temp.png",
        "trial_type": "html-keyboard-response",
        "trial_index": 5,
        "time_elapsed": 27408,
        "internal_node_id": "0.0-5.0"
      },
      {
        "rt": 14127,
        "response": {
          "Temperature": 7,
          "Attention": 9,
          "Freeze": 7,
          "Climate": 8
        },
        "question_order": [
          0,
          3,
          1,
          2
        ],
        "trial_type": "survey-likert",
        "trial_index": 6,
        "time_elapsed": 41536,
        "internal_node_id": "0.0-6.0"
      }
    ]
  },
  "__v": 0
},
{
  "_id": {
    "$oid": "66c9e69b6eecf1068c7bce0b"
  },
  "data": {
    "trials": [
      {
        "success": true,
        "timeout": false,
        "failed_images": [],
        "failed_audio": [],
        "failed_video": [],
        "trial_type": "preload",
        "trial_index": 0,
        "time_elapsed": 244,
        "internal_node_id": "0.0-0.0"
      },
      {
        "rt": 3123,
        "response": {
          "Q0": " I consent to participate"
        },
        "question_order": [
          0
        ],
        "trial_type": "survey-multi-choice",
        "trial_index": 1,
        "time_elapsed": 3368,
        "internal_node_id": "0.0-1.0"
      },
      {
        "view_history": [
          {
            "page_index": 0,
            "viewing_time": 1966
          },
          {
            "page_index": 1,
            "viewing_time": 11565
          }
        ],
        "rt": 13532,
        "trial_type": "instructions",
        "trial_index": 2,
        "time_elapsed": 16901,
        "internal_node_id": "0.0-2.0"
      },
      {
        "view_history": [
          {
            "page_index": 0,
            "viewing_time": 6393
          }
        ],
        "rt": 6393,
        "stimulus_type": "temp",
        "trial_type": "instructions",
        "trial_index": 3,
        "time_elapsed": 23295,
        "internal_node_id": "0.0-3.0"
      },
      {
        "rt": 2315,
        "stimulus": "Now the graph will be shown to you",
        "response": "v",
        "trial_type": "html-keyboard-response",
        "trial_index": 4,
        "time_elapsed": 25611,
        "internal_node_id": "0.0-4.0"
      },
      {
        "rt": 10733,
        "stimulus": "<div style='float: center;'><img src=../img/plots/george_temp.png width=\"1000\" ></img></div>",
        "response": "v",
        "stimulus_type": "../img/plots/george_temp.png",
        "trial_type": "html-keyboard-response",
        "trial_index": 5,
        "time_elapsed": 36346,
        "internal_node_id": "0.0-5.0"
      },
      {
        "rt": 18072,
        "response": {
          "Attention": 9,
          "Freeze": 7,
          "Temperature": 7,
          "Climate": 7
        },
        "question_order": [
          3,
          1,
          0,
          2
        ],
        "trial_type": "survey-likert",
        "trial_index": 6,
        "time_elapsed": 54421,
        "internal_node_id": "0.0-6.0"
      }
    ]
  },
  "__v": 0
},
{
  "_id": {
    "$oid": "66c9e6a06eecf1068c7bce0d"
  },
  "data": {
    "trials": [
      {
        "success": true,
        "timeout": false,
        "failed_images": [],
        "failed_audio": [],
        "failed_video": [],
        "trial_type": "preload",
        "trial_index": 0,
        "time_elapsed": 312,
        "internal_node_id": "0.0-0.0"
      },
      {
        "rt": 3480,
        "response": {
          "Q0": " I consent to participate"
        },
        "question_order": [
          0
        ],
        "trial_type": "survey-multi-choice",
        "trial_index": 1,
        "time_elapsed": 3794,
        "internal_node_id": "0.0-1.0"
      },
      {
        "view_history": [
          {
            "page_index": 0,
            "viewing_time": 1825
          },
          {
            "page_index": 1,
            "viewing_time": 7915
          }
        ],
        "rt": 9740,
        "trial_type": "instructions",
        "trial_index": 2,
        "time_elapsed": 13536,
        "internal_node_id": "0.0-2.0"
      },
      {
        "view_history": [
          {
            "page_index": 0,
            "viewing_time": 22187
          }
        ],
        "rt": 22187,
        "stimulus_type": "temp",
        "trial_type": "instructions",
        "trial_index": 3,
        "time_elapsed": 35723,
        "internal_node_id": "0.0-3.0"
      },
      {
        "rt": 3220,
        "stimulus": "Now the graph will be shown to you",
        "response": "v",
        "trial_type": "html-keyboard-response",
        "trial_index": 4,
        "time_elapsed": 38944,
        "internal_node_id": "0.0-4.0"
      },
      {
        "rt": 11547,
        "stimulus": "<div style='float: center;'><img src=../img/plots/grand_traverse_bay_temp.png width=\"1000\" ></img></div>",
        "response": "v",
        "stimulus_type": "../img/plots/grand_traverse_bay_temp.png",
        "trial_type": "html-keyboard-response",
        "trial_index": 5,
        "time_elapsed": 50492,
        "internal_node_id": "0.0-5.0"
      },
      {
        "rt": 18181,
        "response": {
          "Temperature": 5,
          "Freeze": 6,
          "Climate": 6,
          "Attention": 9
        },
        "question_order": [
          0,
          1,
          2,
          3
        ],
        "trial_type": "survey-likert",
        "trial_index": 6,
        "time_elapsed": 68676,
        "internal_node_id": "0.0-6.0"
      }
    ]
  },
  "__v": 0
},
{
  "_id": {
    "$oid": "66c9e6a16eecf1068c7bce0f"
  },
  "data": {
    "trials": [
      {
        "success": true,
        "timeout": false,
        "failed_images": [],
        "failed_audio": [],
        "failed_video": [],
        "trial_type": "preload",
        "trial_index": 0,
        "time_elapsed": 681,
        "internal_node_id": "0.0-0.0"
      },
      {
        "rt": 3798,
        "response": {
          "Q0": " I consent to participate"
        },
        "question_order": [
          0
        ],
        "trial_type": "survey-multi-choice",
        "trial_index": 1,
        "time_elapsed": 4482,
        "internal_node_id": "0.0-1.0"
      },
      {
        "view_history": [
          {
            "page_index": 0,
            "viewing_time": 3498
          },
          {
            "page_index": 1,
            "viewing_time": 9626
          }
        ],
        "rt": 13125,
        "trial_type": "instructions",
        "trial_index": 2,
        "time_elapsed": 17616,
        "internal_node_id": "0.0-2.0"
      },
      {
        "view_history": [
          {
            "page_index": 0,
            "viewing_time": 11997
          }
        ],
        "rt": 11998,
        "stimulus_type": "freeze",
        "trial_type": "instructions",
        "trial_index": 3,
        "time_elapsed": 29617,
        "internal_node_id": "0.0-3.0"
      },
      {
        "rt": 3808,
        "stimulus": "Now the graph will be shown to you",
        "response": "v",
        "trial_type": "html-keyboard-response",
        "trial_index": 4,
        "time_elapsed": 33429,
        "internal_node_id": "0.0-4.0"
      },
      {
        "rt": 6669,
        "stimulus": "<div style='float: center;'><img src=../img/plots/george_freeze.png width=\"1000\"></img></div>",
        "response": "v",
        "stimulus_type": "../img/plots/george_freeze.png",
        "trial_type": "html-keyboard-response",
        "trial_index": 5,
        "time_elapsed": 40100,
        "internal_node_id": "0.0-5.0"
      },
      {
        "rt": 27066,
        "response": {
          "Temperature": 5,
          "Climate": 9,
          "Attention": 9,
          "Freeze": 7
        },
        "question_order": [
          0,
          2,
          3,
          1
        ],
        "trial_type": "survey-likert",
        "trial_index": 6,
        "time_elapsed": 67172,
        "internal_node_id": "0.0-6.0"
      }
    ]
  },
  "__v": 0
},
{
  "_id": {
    "$oid": "66c9e6ad6eecf1068c7bce11"
  },
  "data": {
    "trials": [
      {
        "success": true,
        "timeout": false,
        "failed_images": [],
        "failed_audio": [],
        "failed_video": [],
        "trial_type": "preload",
        "trial_index": 0,
        "time_elapsed": 493,
        "internal_node_id": "0.0-0.0"
      },
      {
        "rt": 3027,
        "response": {
          "Q0": " I consent to participate"
        },
        "question_order": [
          0
        ],
        "trial_type": "survey-multi-choice",
        "trial_index": 1,
        "time_elapsed": 3522,
        "internal_node_id": "0.0-1.0"
      },
      {
        "view_history": [
          {
            "page_index": 0,
            "viewing_time": 4371
          },
          {
            "page_index": 1,
            "viewing_time": 13008
          }
        ],
        "rt": 17380,
        "trial_type": "instructions",
        "trial_index": 2,
        "time_elapsed": 20904,
        "internal_node_id": "0.0-2.0"
      },
      {
        "view_history": [
          {
            "page_index": 0,
            "viewing_time": 5525
          }
        ],
        "rt": 5525,
        "stimulus_type": "temp",
        "trial_type": "instructions",
        "trial_index": 3,
        "time_elapsed": 26430,
        "internal_node_id": "0.0-3.0"
      },
      {
        "rt": 2398,
        "stimulus": "Now the graph will be shown to you",
        "response": "v",
        "trial_type": "html-keyboard-response",
        "trial_index": 4,
        "time_elapsed": 28829,
        "internal_node_id": "0.0-4.0"
      },
      {
        "rt": 23257,
        "stimulus": "<div style='float: center;'><img src=../img/plots/grand_traverse_bay_temp.png width=\"1000\" ></img></div>",
        "response": "v",
        "stimulus_type": "../img/plots/grand_traverse_bay_temp.png",
        "trial_type": "html-keyboard-response",
        "trial_index": 5,
        "time_elapsed": 52087,
        "internal_node_id": "0.0-5.0"
      },
      {
        "rt": 16822,
        "response": {
          "Attention": 9,
          "Freeze": 3,
          "Climate": 4,
          "Temperature": 4
        },
        "question_order": [
          3,
          1,
          2,
          0
        ],
        "trial_type": "survey-likert",
        "trial_index": 6,
        "time_elapsed": 68911,
        "internal_node_id": "0.0-6.0"
      }
    ]
  },
  "__v": 0
},
{
  "_id": {
    "$oid": "66c9e6b66eecf1068c7bce13"
  },
  "data": {
    "trials": [
      {
        "success": true,
        "timeout": false,
        "failed_images": [],
        "failed_audio": [],
        "failed_video": [],
        "trial_type": "preload",
        "trial_index": 0,
        "time_elapsed": 2331,
        "internal_node_id": "0.0-0.0"
      },
      {
        "rt": 6353,
        "response": {
          "Q0": " I consent to participate"
        },
        "question_order": [
          0
        ],
        "trial_type": "survey-multi-choice",
        "trial_index": 1,
        "time_elapsed": 8687,
        "internal_node_id": "0.0-1.0"
      },
      {
        "view_history": [
          {
            "page_index": 0,
            "viewing_time": 3477
          },
          {
            "page_index": 1,
            "viewing_time": 10793
          }
        ],
        "rt": 14271,
        "trial_type": "instructions",
        "trial_index": 2,
        "time_elapsed": 22963,
        "internal_node_id": "0.0-2.0"
      },
      {
        "view_history": [
          {
            "page_index": 0,
            "viewing_time": 7710
          }
        ],
        "rt": 7711,
        "stimulus_type": "freeze",
        "trial_type": "instructions",
        "trial_index": 3,
        "time_elapsed": 30675,
        "internal_node_id": "0.0-3.0"
      },
      {
        "rt": 3366,
        "stimulus": "Now the graph will be shown to you",
        "response": "v",
        "trial_type": "html-keyboard-response",
        "trial_index": 4,
        "time_elapsed": 34042,
        "internal_node_id": "0.0-4.0"
      },
      {
        "rt": 11336,
        "stimulus": "<div style='float: center;'><img src=../img/plots/vattern_freeze.png width=\"1000\"></img></div>",
        "response": "v",
        "stimulus_type": "../img/plots/vattern_freeze.png",
        "trial_type": "html-keyboard-response",
        "trial_index": 5,
        "time_elapsed": 45381,
        "internal_node_id": "0.0-5.0"
      },
      {
        "rt": 23040,
        "response": {
          "Climate": 8,
          "Freeze": 8,
          "Attention": 9,
          "Temperature": 8
        },
        "question_order": [
          2,
          1,
          3,
          0
        ],
        "trial_type": "survey-likert",
        "trial_index": 6,
        "time_elapsed": 68423,
        "internal_node_id": "0.0-6.0"
      }
    ]
  },
  "__v": 0
},
{
  "_id": {
    "$oid": "66c9e6b76eecf1068c7bce15"
  },
  "data": {
    "trials": [
      {
        "success": true,
        "timeout": false,
        "failed_images": [],
        "failed_audio": [],
        "failed_video": [],
        "trial_type": "preload",
        "trial_index": 0,
        "time_elapsed": 1114,
        "internal_node_id": "0.0-0.0"
      },
      {
        "rt": 3703,
        "response": {
          "Q0": " I consent to participate"
        },
        "question_order": [
          0
        ],
        "trial_type": "survey-multi-choice",
        "trial_index": 1,
        "time_elapsed": 4818,
        "internal_node_id": "0.0-1.0"
      },
      {
        "view_history": [
          {
            "page_index": 0,
            "viewing_time": 1865
          },
          {
            "page_index": 1,
            "viewing_time": 12317
          }
        ],
        "rt": 14183,
        "trial_type": "instructions",
        "trial_index": 2,
        "time_elapsed": 19002,
        "internal_node_id": "0.0-2.0"
      },
      {
        "view_history": [
          {
            "page_index": 0,
            "viewing_time": 7503
          }
        ],
        "rt": 7503,
        "stimulus_type": "freeze",
        "trial_type": "instructions",
        "trial_index": 3,
        "time_elapsed": 26506,
        "internal_node_id": "0.0-3.0"
      },
      {
        "rt": 2477,
        "stimulus": "Now the graph will be shown to you",
        "response": "v",
        "trial_type": "html-keyboard-response",
        "trial_index": 4,
        "time_elapsed": 28983,
        "internal_node_id": "0.0-4.0"
      },
      {
        "rt": 12058,
        "stimulus": "<div style='float: center;'><img src=../img/plots/suwa_freeze.png width=\"1000\"></img></div>",
        "response": "v",
        "stimulus_type": "../img/plots/suwa_freeze.png",
        "trial_type": "html-keyboard-response",
        "trial_index": 5,
        "time_elapsed": 41042,
        "internal_node_id": "0.0-5.0"
      },
      {
        "rt": 17696,
        "response": {
          "Attention": 9,
          "Climate": 7,
          "Freeze": 7,
          "Temperature": 7
        },
        "question_order": [
          3,
          2,
          1,
          0
        ],
        "trial_type": "survey-likert",
        "trial_index": 6,
        "time_elapsed": 58741,
        "internal_node_id": "0.0-6.0"
      }
    ]
  },
  "__v": 0
},
{
  "_id": {
    "$oid": "66c9e6b96eecf1068c7bce17"
  },
  "data": {
    "trials": [
      {
        "success": true,
        "timeout": false,
        "failed_images": [],
        "failed_audio": [],
        "failed_video": [],
        "trial_type": "preload",
        "trial_index": 0,
        "time_elapsed": 160,
        "internal_node_id": "0.0-0.0"
      },
      {
        "rt": 14405,
        "response": {
          "Q0": " I consent to participate"
        },
        "question_order": [
          0
        ],
        "trial_type": "survey-multi-choice",
        "trial_index": 1,
        "time_elapsed": 14566,
        "internal_node_id": "0.0-1.0"
      },
      {
        "view_history": [
          {
            "page_index": 0,
            "viewing_time": 3612
          },
          {
            "page_index": 1,
            "viewing_time": 12850
          }
        ],
        "rt": 16462,
        "trial_type": "instructions",
        "trial_index": 2,
        "time_elapsed": 31030,
        "internal_node_id": "0.0-2.0"
      },
      {
        "view_history": [
          {
            "page_index": 0,
            "viewing_time": 14002
          }
        ],
        "rt": 14002,
        "stimulus_type": "freeze",
        "trial_type": "instructions",
        "trial_index": 3,
        "time_elapsed": 45032,
        "internal_node_id": "0.0-3.0"
      },
      {
        "rt": 2176,
        "stimulus": "Now the graph will be shown to you",
        "response": "v",
        "trial_type": "html-keyboard-response",
        "trial_index": 4,
        "time_elapsed": 47208,
        "internal_node_id": "0.0-4.0"
      },
      {
        "rt": 12848,
        "stimulus": "<div style='float: center;'><img src=../img/plots/george_freeze.png width=\"1000\"></img></div>",
        "response": "v",
        "stimulus_type": "../img/plots/george_freeze.png",
        "trial_type": "html-keyboard-response",
        "trial_index": 5,
        "time_elapsed": 60057,
        "internal_node_id": "0.0-5.0"
      },
      {
        "rt": 26637,
        "response": {
          "Attention": 9,
          "Temperature": 7,
          "Freeze": 9,
          "Climate": 8
        },
        "question_order": [
          3,
          0,
          1,
          2
        ],
        "trial_type": "survey-likert",
        "trial_index": 6,
        "time_elapsed": 86696,
        "internal_node_id": "0.0-6.0"
      }
    ]
  },
  "__v": 0
},
{
  "_id": {
    "$oid": "66c9e6c06eecf1068c7bce19"
  },
  "data": {
    "trials": [
      {
        "success": true,
        "timeout": false,
        "failed_images": [],
        "failed_audio": [],
        "failed_video": [],
        "trial_type": "preload",
        "trial_index": 0,
        "time_elapsed": 638,
        "internal_node_id": "0.0-0.0"
      },
      {
        "rt": 7481,
        "response": {
          "Q0": " I consent to participate"
        },
        "question_order": [
          0
        ],
        "trial_type": "survey-multi-choice",
        "trial_index": 1,
        "time_elapsed": 8121,
        "internal_node_id": "0.0-1.0"
      },
      {
        "view_history": [
          {
            "page_index": 0,
            "viewing_time": 4462
          },
          {
            "page_index": 1,
            "viewing_time": 7472
          }
        ],
        "rt": 11935,
        "trial_type": "instructions",
        "trial_index": 2,
        "time_elapsed": 20059,
        "internal_node_id": "0.0-2.0"
      },
      {
        "view_history": [
          {
            "page_index": 0,
            "viewing_time": 10568
          }
        ],
        "rt": 10568,
        "stimulus_type": "freeze",
        "trial_type": "instructions",
        "trial_index": 3,
        "time_elapsed": 30628,
        "internal_node_id": "0.0-3.0"
      },
      {
        "rt": 3397,
        "stimulus": "Now the graph will be shown to you",
        "response": "v",
        "trial_type": "html-keyboard-response",
        "trial_index": 4,
        "time_elapsed": 34026,
        "internal_node_id": "0.0-4.0"
      },
      {
        "rt": 13073,
        "stimulus": "<div style='float: center;'><img src=../img/plots/vattern_freeze.png width=\"1000\"></img></div>",
        "response": "v",
        "stimulus_type": "../img/plots/vattern_freeze.png",
        "trial_type": "html-keyboard-response",
        "trial_index": 5,
        "time_elapsed": 47100,
        "internal_node_id": "0.0-5.0"
      },
      {
        "rt": 17968,
        "response": {
          "Climate": 6,
          "Attention": 9,
          "Freeze": 2,
          "Temperature": 3
        },
        "question_order": [
          2,
          3,
          1,
          0
        ],
        "trial_type": "survey-likert",
        "trial_index": 6,
        "time_elapsed": 65071,
        "internal_node_id": "0.0-6.0"
      }
    ]
  },
  "__v": 0
},
{
  "_id": {
    "$oid": "66c9e6c16eecf1068c7bce1b"
  },
  "data": {
    "trials": [
      {
        "success": true,
        "timeout": false,
        "failed_images": [],
        "failed_audio": [],
        "failed_video": [],
        "trial_type": "preload",
        "trial_index": 0,
        "time_elapsed": 1426,
        "internal_node_id": "0.0-0.0"
      },
      {
        "rt": 4527,
        "response": {
          "Q0": " I consent to participate"
        },
        "question_order": [
          0
        ],
        "trial_type": "survey-multi-choice",
        "trial_index": 1,
        "time_elapsed": 5955,
        "internal_node_id": "0.0-1.0"
      },
      {
        "view_history": [
          {
            "page_index": 0,
            "viewing_time": 2111
          },
          {
            "page_index": 1,
            "viewing_time": 10432
          }
        ],
        "rt": 12544,
        "trial_type": "instructions",
        "trial_index": 2,
        "time_elapsed": 18502,
        "internal_node_id": "0.0-2.0"
      },
      {
        "view_history": [
          {
            "page_index": 0,
            "viewing_time": 8953
          }
        ],
        "rt": 8954,
        "stimulus_type": "freeze",
        "trial_type": "instructions",
        "trial_index": 3,
        "time_elapsed": 27457,
        "internal_node_id": "0.0-3.0"
      },
      {
        "rt": 3451,
        "stimulus": "Now the graph will be shown to you",
        "response": "v",
        "trial_type": "html-keyboard-response",
        "trial_index": 4,
        "time_elapsed": 30910,
        "internal_node_id": "0.0-4.0"
      },
      {
        "rt": 11657,
        "stimulus": "<div style='float: center;'><img src=../img/plots/george_freeze.png width=\"1000\"></img></div>",
        "response": "v",
        "stimulus_type": "../img/plots/george_freeze.png",
        "trial_type": "html-keyboard-response",
        "trial_index": 5,
        "time_elapsed": 42568,
        "internal_node_id": "0.0-5.0"
      },
      {
        "rt": 19563,
        "response": {
          "Climate": 8,
          "Attention": 9,
          "Freeze": 8,
          "Temperature": 8
        },
        "question_order": [
          2,
          3,
          1,
          0
        ],
        "trial_type": "survey-likert",
        "trial_index": 6,
        "time_elapsed": 62136,
        "internal_node_id": "0.0-6.0"
      }
    ]
  },
  "__v": 0
},
{
  "_id": {
    "$oid": "66c9e6c16eecf1068c7bce1d"
  },
  "data": {
    "trials": [
      {
        "success": true,
        "timeout": false,
        "failed_images": [],
        "failed_audio": [],
        "failed_video": [],
        "trial_type": "preload",
        "trial_index": 0,
        "time_elapsed": 452,
        "internal_node_id": "0.0-0.0"
      },
      {
        "rt": 6071,
        "response": {
          "Q0": " I consent to participate"
        },
        "question_order": [
          0
        ],
        "trial_type": "survey-multi-choice",
        "trial_index": 1,
        "time_elapsed": 6525,
        "internal_node_id": "0.0-1.0"
      },
      {
        "view_history": [
          {
            "page_index": 0,
            "viewing_time": 6507
          },
          {
            "page_index": 1,
            "viewing_time": 11938
          }
        ],
        "rt": 18445,
        "trial_type": "instructions",
        "trial_index": 2,
        "time_elapsed": 24973,
        "internal_node_id": "0.0-2.0"
      },
      {
        "view_history": [
          {
            "page_index": 0,
            "viewing_time": 11228
          }
        ],
        "rt": 11228,
        "stimulus_type": "freeze",
        "trial_type": "instructions",
        "trial_index": 3,
        "time_elapsed": 36203,
        "internal_node_id": "0.0-3.0"
      },
      {
        "rt": 4654,
        "stimulus": "Now the graph will be shown to you",
        "response": "v",
        "trial_type": "html-keyboard-response",
        "trial_index": 4,
        "time_elapsed": 40859,
        "internal_node_id": "0.0-4.0"
      },
      {
        "rt": 12499,
        "stimulus": "<div style='float: center;'><img src=../img/plots/sarnersee_freeze.png width=\"1000\"></img></div>",
        "response": "v",
        "stimulus_type": "../img/plots/sarnersee_freeze.png",
        "trial_type": "html-keyboard-response",
        "trial_index": 5,
        "time_elapsed": 53361,
        "internal_node_id": "0.0-5.0"
      },
      {
        "rt": 24613,
        "response": {
          "Freeze": 8,
          "Attention": 9,
          "Climate": 7,
          "Temperature": 8
        },
        "question_order": [
          1,
          3,
          2,
          0
        ],
        "trial_type": "survey-likert",
        "trial_index": 6,
        "time_elapsed": 77978,
        "internal_node_id": "0.0-6.0"
      }
    ]
  },
  "__v": 0
},
{
  "_id": {
    "$oid": "66c9e6c56eecf1068c7bce1f"
  },
  "data": {
    "trials": [
      {
        "success": true,
        "timeout": false,
        "failed_images": [],
        "failed_audio": [],
        "failed_video": [],
        "trial_type": "preload",
        "trial_index": 0,
        "time_elapsed": 634,
        "internal_node_id": "0.0-0.0"
      },
      {
        "rt": 3209,
        "response": {
          "Q0": " I consent to participate"
        },
        "question_order": [
          0
        ],
        "trial_type": "survey-multi-choice",
        "trial_index": 1,
        "time_elapsed": 3845,
        "internal_node_id": "0.0-1.0"
      },
      {
        "view_history": [
          {
            "page_index": 0,
            "viewing_time": 2785
          },
          {
            "page_index": 1,
            "viewing_time": 11037
          }
        ],
        "rt": 13822,
        "trial_type": "instructions",
        "trial_index": 2,
        "time_elapsed": 17668,
        "internal_node_id": "0.0-2.0"
      },
      {
        "view_history": [
          {
            "page_index": 0,
            "viewing_time": 4366
          }
        ],
        "rt": 4366,
        "stimulus_type": "temp",
        "trial_type": "instructions",
        "trial_index": 3,
        "time_elapsed": 22034,
        "internal_node_id": "0.0-3.0"
      },
      {
        "rt": 3050,
        "stimulus": "Now the graph will be shown to you",
        "response": "v",
        "trial_type": "html-keyboard-response",
        "trial_index": 4,
        "time_elapsed": 25084,
        "internal_node_id": "0.0-4.0"
      },
      {
        "rt": 14829,
        "stimulus": "<div style='float: center;'><img src=../img/plots/grand_traverse_bay_temp.png width=\"1000\" ></img></div>",
        "response": "v",
        "stimulus_type": "../img/plots/grand_traverse_bay_temp.png",
        "trial_type": "html-keyboard-response",
        "trial_index": 5,
        "time_elapsed": 39914,
        "internal_node_id": "0.0-5.0"
      },
      {
        "rt": 16555,
        "response": {
          "Climate": 6,
          "Temperature": 7,
          "Attention": 9,
          "Freeze": 7
        },
        "question_order": [
          2,
          0,
          3,
          1
        ],
        "trial_type": "survey-likert",
        "trial_index": 6,
        "time_elapsed": 56470,
        "internal_node_id": "0.0-6.0"
      }
    ]
  },
  "__v": 0
},
{
  "_id": {
    "$oid": "66c9e6c66eecf1068c7bce21"
  },
  "data": {
    "trials": [
      {
        "success": true,
        "timeout": false,
        "failed_images": [],
        "failed_audio": [],
        "failed_video": [],
        "trial_type": "preload",
        "trial_index": 0,
        "time_elapsed": 356,
        "internal_node_id": "0.0-0.0"
      },
      {
        "rt": 3433,
        "response": {
          "Q0": " I consent to participate"
        },
        "question_order": [
          0
        ],
        "trial_type": "survey-multi-choice",
        "trial_index": 1,
        "time_elapsed": 3790,
        "internal_node_id": "0.0-1.0"
      },
      {
        "view_history": [
          {
            "page_index": 0,
            "viewing_time": 1388
          },
          {
            "page_index": 1,
            "viewing_time": 10029
          }
        ],
        "rt": 11417,
        "trial_type": "instructions",
        "trial_index": 2,
        "time_elapsed": 15211,
        "internal_node_id": "0.0-2.0"
      },
      {
        "view_history": [
          {
            "page_index": 0,
            "viewing_time": 6074
          }
        ],
        "rt": 6074,
        "stimulus_type": "temp",
        "trial_type": "instructions",
        "trial_index": 3,
        "time_elapsed": 21286,
        "internal_node_id": "0.0-3.0"
      },
      {
        "rt": 2192,
        "stimulus": "Now the graph will be shown to you",
        "response": "v",
        "trial_type": "html-keyboard-response",
        "trial_index": 4,
        "time_elapsed": 23480,
        "internal_node_id": "0.0-4.0"
      },
      {
        "rt": 6239,
        "stimulus": "<div style='float: center;'><img src=../img/plots/sarnersee_temp.png width=\"1000\" ></img></div>",
        "response": "v",
        "stimulus_type": "../img/plots/sarnersee_temp.png",
        "trial_type": "html-keyboard-response",
        "trial_index": 5,
        "time_elapsed": 29720,
        "internal_node_id": "0.0-5.0"
      },
      {
        "rt": 17014,
        "response": {
          "Climate": 7,
          "Freeze": 7,
          "Temperature": 7,
          "Attention": 9
        },
        "question_order": [
          2,
          1,
          0,
          3
        ],
        "trial_type": "survey-likert",
        "trial_index": 6,
        "time_elapsed": 46737,
        "internal_node_id": "0.0-6.0"
      }
    ]
  },
  "__v": 0
},
{
  "_id": {
    "$oid": "66c9e6c76eecf1068c7bce23"
  },
  "data": {
    "trials": [
      {
        "success": true,
        "timeout": false,
        "failed_images": [],
        "failed_audio": [],
        "failed_video": [],
        "trial_type": "preload",
        "trial_index": 0,
        "time_elapsed": 480,
        "internal_node_id": "0.0-0.0"
      },
      {
        "rt": 4337,
        "response": {
          "Q0": " I consent to participate"
        },
        "question_order": [
          0
        ],
        "trial_type": "survey-multi-choice",
        "trial_index": 1,
        "time_elapsed": 4820,
        "internal_node_id": "0.0-1.0"
      },
      {
        "view_history": [
          {
            "page_index": 0,
            "viewing_time": 6058
          },
          {
            "page_index": 1,
            "viewing_time": 15906
          }
        ],
        "rt": 21965,
        "trial_type": "instructions",
        "trial_index": 2,
        "time_elapsed": 26787,
        "internal_node_id": "0.0-2.0"
      },
      {
        "view_history": [
          {
            "page_index": 0,
            "viewing_time": 11700
          }
        ],
        "rt": 11700,
        "stimulus_type": "freeze",
        "trial_type": "instructions",
        "trial_index": 3,
        "time_elapsed": 38487,
        "internal_node_id": "0.0-3.0"
      },
      {
        "rt": 3784,
        "stimulus": "Now the graph will be shown to you",
        "response": "v",
        "trial_type": "html-keyboard-response",
        "trial_index": 4,
        "time_elapsed": 42273,
        "internal_node_id": "0.0-4.0"
      },
      {
        "rt": 13647,
        "stimulus": "<div style='float: center;'><img src=../img/plots/vattern_freeze.png width=\"1000\"></img></div>",
        "response": "v",
        "stimulus_type": "../img/plots/vattern_freeze.png",
        "trial_type": "html-keyboard-response",
        "trial_index": 5,
        "time_elapsed": 55921,
        "internal_node_id": "0.0-5.0"
      },
      {
        "rt": 26688,
        "response": {
          "Climate": 0,
          "Attention": 9,
          "Temperature": 2,
          "Freeze": 3
        },
        "question_order": [
          2,
          3,
          0,
          1
        ],
        "trial_type": "survey-likert",
        "trial_index": 6,
        "time_elapsed": 82611,
        "internal_node_id": "0.0-6.0"
      }
    ]
  },
  "__v": 0
},
{
  "_id": {
    "$oid": "66c9e6c86eecf1068c7bce25"
  },
  "data": {
    "trials": [
      {
        "success": true,
        "timeout": false,
        "failed_images": [],
        "failed_audio": [],
        "failed_video": [],
        "trial_type": "preload",
        "trial_index": 0,
        "time_elapsed": 482,
        "internal_node_id": "0.0-0.0"
      },
      {
        "rt": 8092,
        "response": {
          "Q0": " I consent to participate"
        },
        "question_order": [
          0
        ],
        "trial_type": "survey-multi-choice",
        "trial_index": 1,
        "time_elapsed": 8575,
        "internal_node_id": "0.0-1.0"
      },
      {
        "view_history": [
          {
            "page_index": 0,
            "viewing_time": 4268
          },
          {
            "page_index": 1,
            "viewing_time": 15680
          }
        ],
        "rt": 19948,
        "trial_type": "instructions",
        "trial_index": 2,
        "time_elapsed": 28526,
        "internal_node_id": "0.0-2.0"
      },
      {
        "view_history": [
          {
            "page_index": 0,
            "viewing_time": 4104
          }
        ],
        "rt": 4105,
        "stimulus_type": "temp",
        "trial_type": "instructions",
        "trial_index": 3,
        "time_elapsed": 32631,
        "internal_node_id": "0.0-3.0"
      },
      {
        "rt": 2918,
        "stimulus": "Now the graph will be shown to you",
        "response": "v",
        "trial_type": "html-keyboard-response",
        "trial_index": 4,
        "time_elapsed": 35551,
        "internal_node_id": "0.0-4.0"
      },
      {
        "rt": 30901,
        "stimulus": "<div style='float: center;'><img src=../img/plots/suwa_temp.png width=\"1000\" ></img></div>",
        "response": "v",
        "stimulus_type": "../img/plots/suwa_temp.png",
        "trial_type": "html-keyboard-response",
        "trial_index": 5,
        "time_elapsed": 66453,
        "internal_node_id": "0.0-5.0"
      },
      {
        "rt": 14833,
        "response": {
          "Temperature": 8,
          "Attention": 9,
          "Climate": 7,
          "Freeze": 7
        },
        "question_order": [
          0,
          3,
          2,
          1
        ],
        "trial_type": "survey-likert",
        "trial_index": 6,
        "time_elapsed": 81288,
        "internal_node_id": "0.0-6.0"
      }
    ]
  },
  "__v": 0
},
{
  "_id": {
    "$oid": "66c9e6c86eecf1068c7bce27"
  },
  "data": {
    "trials": [
      {
        "success": true,
        "timeout": false,
        "failed_images": [],
        "failed_audio": [],
        "failed_video": [],
        "trial_type": "preload",
        "trial_index": 0,
        "time_elapsed": 380,
        "internal_node_id": "0.0-0.0"
      },
      {
        "rt": 4820,
        "response": {
          "Q0": " I consent to participate"
        },
        "question_order": [
          0
        ],
        "trial_type": "survey-multi-choice",
        "trial_index": 1,
        "time_elapsed": 5201,
        "internal_node_id": "0.0-1.0"
      },
      {
        "view_history": [
          {
            "page_index": 0,
            "viewing_time": 3515
          },
          {
            "page_index": 1,
            "viewing_time": 16451
          }
        ],
        "rt": 19966,
        "trial_type": "instructions",
        "trial_index": 2,
        "time_elapsed": 25169,
        "internal_node_id": "0.0-2.0"
      },
      {
        "view_history": [
          {
            "page_index": 0,
            "viewing_time": 15283
          }
        ],
        "rt": 15283,
        "stimulus_type": "freeze",
        "trial_type": "instructions",
        "trial_index": 3,
        "time_elapsed": 40452,
        "internal_node_id": "0.0-3.0"
      },
      {
        "rt": 2808,
        "stimulus": "Now the graph will be shown to you",
        "response": "v",
        "trial_type": "html-keyboard-response",
        "trial_index": 4,
        "time_elapsed": 43261,
        "internal_node_id": "0.0-4.0"
      },
      {
        "rt": 12775,
        "stimulus": "<div style='float: center;'><img src=../img/plots/vattern_freeze.png width=\"1000\"></img></div>",
        "response": "v",
        "stimulus_type": "../img/plots/vattern_freeze.png",
        "trial_type": "html-keyboard-response",
        "trial_index": 5,
        "time_elapsed": 56035,
        "internal_node_id": "0.0-5.0"
      },
      {
        "rt": 18297,
        "response": {
          "Temperature": 7,
          "Climate": 6,
          "Freeze": 7,
          "Attention": 9
        },
        "question_order": [
          0,
          2,
          1,
          3
        ],
        "trial_type": "survey-likert",
        "trial_index": 6,
        "time_elapsed": 74334,
        "internal_node_id": "0.0-6.0"
      }
    ]
  },
  "__v": 0
},
{
  "_id": {
    "$oid": "66c9e6cb6eecf1068c7bce29"
  },
  "data": {
    "trials": [
      {
        "success": true,
        "timeout": false,
        "failed_images": [],
        "failed_audio": [],
        "failed_video": [],
        "trial_type": "preload",
        "trial_index": 0,
        "time_elapsed": 12086,
        "internal_node_id": "0.0-0.0"
      },
      {
        "rt": 3906,
        "response": {
          "Q0": " I consent to participate"
        },
        "question_order": [
          0
        ],
        "trial_type": "survey-multi-choice",
        "trial_index": 1,
        "time_elapsed": 15995,
        "internal_node_id": "0.0-1.0"
      },
      {
        "view_history": [
          {
            "page_index": 0,
            "viewing_time": 2011
          },
          {
            "page_index": 1,
            "viewing_time": 10487
          }
        ],
        "rt": 12499,
        "trial_type": "instructions",
        "trial_index": 2,
        "time_elapsed": 28499,
        "internal_node_id": "0.0-2.0"
      },
      {
        "view_history": [
          {
            "page_index": 0,
            "viewing_time": 6142
          }
        ],
        "rt": 6143,
        "stimulus_type": "temp",
        "trial_type": "instructions",
        "trial_index": 3,
        "time_elapsed": 34643,
        "internal_node_id": "0.0-3.0"
      },
      {
        "rt": 4381,
        "stimulus": "Now the graph will be shown to you",
        "response": "v",
        "trial_type": "html-keyboard-response",
        "trial_index": 4,
        "time_elapsed": 39025,
        "internal_node_id": "0.0-4.0"
      },
      {
        "rt": 20666,
        "stimulus": "<div style='float: center;'><img src=../img/plots/grand_traverse_bay_temp.png width=\"1000\" ></img></div>",
        "response": "v",
        "stimulus_type": "../img/plots/grand_traverse_bay_temp.png",
        "trial_type": "html-keyboard-response",
        "trial_index": 5,
        "time_elapsed": 59692,
        "internal_node_id": "0.0-5.0"
      },
      {
        "rt": 15004,
        "response": {
          "Attention": 9,
          "Climate": 6,
          "Freeze": 5,
          "Temperature": 6
        },
        "question_order": [
          3,
          2,
          1,
          0
        ],
        "trial_type": "survey-likert",
        "trial_index": 6,
        "time_elapsed": 74701,
        "internal_node_id": "0.0-6.0"
      }
    ]
  },
  "__v": 0
},
{
  "_id": {
    "$oid": "66c9e6cb6eecf1068c7bce2b"
  },
  "data": {
    "trials": [
      {
        "success": true,
        "timeout": false,
        "failed_images": [],
        "failed_audio": [],
        "failed_video": [],
        "trial_type": "preload",
        "trial_index": 0,
        "time_elapsed": 507,
        "internal_node_id": "0.0-0.0"
      },
      {
        "rt": 13755,
        "response": {
          "Q0": " I consent to participate"
        },
        "question_order": [
          0
        ],
        "trial_type": "survey-multi-choice",
        "trial_index": 1,
        "time_elapsed": 14264,
        "internal_node_id": "0.0-1.0"
      },
      {
        "view_history": [
          {
            "page_index": 0,
            "viewing_time": 5342
          },
          {
            "page_index": 1,
            "viewing_time": 19346
          }
        ],
        "rt": 24688,
        "trial_type": "instructions",
        "trial_index": 2,
        "time_elapsed": 38956,
        "internal_node_id": "0.0-2.0"
      },
      {
        "view_history": [
          {
            "page_index": 0,
            "viewing_time": 12579
          }
        ],
        "rt": 12580,
        "stimulus_type": "freeze",
        "trial_type": "instructions",
        "trial_index": 3,
        "time_elapsed": 51537,
        "internal_node_id": "0.0-3.0"
      },
      {
        "rt": 4990,
        "stimulus": "Now the graph will be shown to you",
        "response": "v",
        "trial_type": "html-keyboard-response",
        "trial_index": 4,
        "time_elapsed": 56528,
        "internal_node_id": "0.0-4.0"
      },
      {
        "rt": 4718,
        "stimulus": "<div style='float: center;'><img src=../img/plots/sarnersee_freeze.png width=\"1000\"></img></div>",
        "response": "v",
        "stimulus_type": "../img/plots/sarnersee_freeze.png",
        "trial_type": "html-keyboard-response",
        "trial_index": 5,
        "time_elapsed": 61248,
        "internal_node_id": "0.0-5.0"
      },
      {
        "rt": 18588,
        "response": {
          "Temperature": 5,
          "Attention": 9,
          "Climate": 6,
          "Freeze": 5
        },
        "question_order": [
          0,
          3,
          2,
          1
        ],
        "trial_type": "survey-likert",
        "trial_index": 6,
        "time_elapsed": 79839,
        "internal_node_id": "0.0-6.0"
      }
    ]
  },
  "__v": 0
},
{
  "_id": {
    "$oid": "66c9e6cd6eecf1068c7bce2d"
  },
  "data": {
    "trials": [
      {
        "success": true,
        "timeout": false,
        "failed_images": [],
        "failed_audio": [],
        "failed_video": [],
        "trial_type": "preload",
        "trial_index": 0,
        "time_elapsed": 357,
        "internal_node_id": "0.0-0.0"
      },
      {
        "rt": 5086,
        "response": {
          "Q0": " I consent to participate"
        },
        "question_order": [
          0
        ],
        "trial_type": "survey-multi-choice",
        "trial_index": 1,
        "time_elapsed": 5444,
        "internal_node_id": "0.0-1.0"
      },
      {
        "view_history": [
          {
            "page_index": 0,
            "viewing_time": 1481
          },
          {
            "page_index": 1,
            "viewing_time": 12281
          }
        ],
        "rt": 13761,
        "trial_type": "instructions",
        "trial_index": 2,
        "time_elapsed": 19207,
        "internal_node_id": "0.0-2.0"
      },
      {
        "view_history": [
          {
            "page_index": 0,
            "viewing_time": 11519
          }
        ],
        "rt": 11519,
        "stimulus_type": "temp",
        "trial_type": "instructions",
        "trial_index": 3,
        "time_elapsed": 30727,
        "internal_node_id": "0.0-3.0"
      },
      {
        "rt": 2141,
        "stimulus": "Now the graph will be shown to you",
        "response": "v",
        "trial_type": "html-keyboard-response",
        "trial_index": 4,
        "time_elapsed": 32869,
        "internal_node_id": "0.0-4.0"
      },
      {
        "rt": 8132,
        "stimulus": "<div style='float: center;'><img src=../img/plots/suwa_temp.png width=\"1000\" ></img></div>",
        "response": "v",
        "stimulus_type": "../img/plots/suwa_temp.png",
        "trial_type": "html-keyboard-response",
        "trial_index": 5,
        "time_elapsed": 41001,
        "internal_node_id": "0.0-5.0"
      },
      {
        "rt": 15305,
        "response": {
          "Freeze": 6,
          "Attention": 9,
          "Climate": 6,
          "Temperature": 6
        },
        "question_order": [
          1,
          3,
          2,
          0
        ],
        "trial_type": "survey-likert",
        "trial_index": 6,
        "time_elapsed": 56307,
        "internal_node_id": "0.0-6.0"
      }
    ]
  },
  "__v": 0
},
{
  "_id": {
    "$oid": "66c9e6ce6eecf1068c7bce2f"
  },
  "data": {
    "trials": [
      {
        "success": true,
        "timeout": false,
        "failed_images": [],
        "failed_audio": [],
        "failed_video": [],
        "trial_type": "preload",
        "trial_index": 0,
        "time_elapsed": 428,
        "internal_node_id": "0.0-0.0"
      },
      {
        "rt": 5591,
        "response": {
          "Q0": " I consent to participate"
        },
        "question_order": [
          0
        ],
        "trial_type": "survey-multi-choice",
        "trial_index": 1,
        "time_elapsed": 6019,
        "internal_node_id": "0.0-1.0"
      },
      {
        "view_history": [
          {
            "page_index": 0,
            "viewing_time": 2813
          },
          {
            "page_index": 1,
            "viewing_time": 21460
          }
        ],
        "rt": 24273,
        "trial_type": "instructions",
        "trial_index": 2,
        "time_elapsed": 30293,
        "internal_node_id": "0.0-2.0"
      },
      {
        "view_history": [
          {
            "page_index": 0,
            "viewing_time": 11063
          }
        ],
        "rt": 11063,
        "stimulus_type": "freeze",
        "trial_type": "instructions",
        "trial_index": 3,
        "time_elapsed": 41357,
        "internal_node_id": "0.0-3.0"
      },
      {
        "rt": 2142,
        "stimulus": "Now the graph will be shown to you",
        "response": "v",
        "trial_type": "html-keyboard-response",
        "trial_index": 4,
        "time_elapsed": 43501,
        "internal_node_id": "0.0-4.0"
      },
      {
        "rt": 11836,
        "stimulus": "<div style='float: center;'><img src=../img/plots/suwa_freeze.png width=\"1000\"></img></div>",
        "response": "v",
        "stimulus_type": "../img/plots/suwa_freeze.png",
        "trial_type": "html-keyboard-response",
        "trial_index": 5,
        "time_elapsed": 55339,
        "internal_node_id": "0.0-5.0"
      },
      {
        "rt": 25291,
        "response": {
          "Climate": 3,
          "Attention": 9,
          "Temperature": 4,
          "Freeze": 4
        },
        "question_order": [
          2,
          3,
          0,
          1
        ],
        "trial_type": "survey-likert",
        "trial_index": 6,
        "time_elapsed": 80634,
        "internal_node_id": "0.0-6.0"
      }
    ]
  },
  "__v": 0
},
{
  "_id": {
    "$oid": "66c9e6d16eecf1068c7bce31"
  },
  "data": {
    "trials": [
      {
        "success": true,
        "timeout": false,
        "failed_images": [],
        "failed_audio": [],
        "failed_video": [],
        "trial_type": "preload",
        "trial_index": 0,
        "time_elapsed": 339,
        "internal_node_id": "0.0-0.0"
      },
      {
        "rt": 2927,
        "response": {
          "Q0": " I consent to participate"
        },
        "question_order": [
          0
        ],
        "trial_type": "survey-multi-choice",
        "trial_index": 1,
        "time_elapsed": 3267,
        "internal_node_id": "0.0-1.0"
      },
      {
        "view_history": [
          {
            "page_index": 0,
            "viewing_time": 1516
          },
          {
            "page_index": 1,
            "viewing_time": 16811
          }
        ],
        "rt": 18327,
        "trial_type": "instructions",
        "trial_index": 2,
        "time_elapsed": 21597,
        "internal_node_id": "0.0-2.0"
      },
      {
        "view_history": [
          {
            "page_index": 0,
            "viewing_time": 20354
          }
        ],
        "rt": 20354,
        "stimulus_type": "freeze",
        "trial_type": "instructions",
        "trial_index": 3,
        "time_elapsed": 41952,
        "internal_node_id": "0.0-3.0"
      },
      {
        "rt": 3268,
        "stimulus": "Now the graph will be shown to you",
        "response": "v",
        "trial_type": "html-keyboard-response",
        "trial_index": 4,
        "time_elapsed": 45221,
        "internal_node_id": "0.0-4.0"
      },
      {
        "rt": 13821,
        "stimulus": "<div style='float: center;'><img src=../img/plots/suwa_freeze.png width=\"1000\"></img></div>",
        "response": "v",
        "stimulus_type": "../img/plots/suwa_freeze.png",
        "trial_type": "html-keyboard-response",
        "trial_index": 5,
        "time_elapsed": 59044,
        "internal_node_id": "0.0-5.0"
      },
      {
        "rt": 23276,
        "response": {
          "Climate": 8,
          "Attention": 9,
          "Freeze": 8,
          "Temperature": 9
        },
        "question_order": [
          2,
          3,
          1,
          0
        ],
        "trial_type": "survey-likert",
        "trial_index": 6,
        "time_elapsed": 82323,
        "internal_node_id": "0.0-6.0"
      }
    ]
  },
  "__v": 0
},
{
  "_id": {
    "$oid": "66c9e6d36eecf1068c7bce33"
  },
  "data": {
    "trials": [
      {
        "success": true,
        "timeout": false,
        "failed_images": [],
        "failed_audio": [],
        "failed_video": [],
        "trial_type": "preload",
        "trial_index": 0,
        "time_elapsed": 373,
        "internal_node_id": "0.0-0.0"
      },
      {
        "rt": 3451,
        "response": {
          "Q0": " I consent to participate"
        },
        "question_order": [
          0
        ],
        "trial_type": "survey-multi-choice",
        "trial_index": 1,
        "time_elapsed": 3825,
        "internal_node_id": "0.0-1.0"
      },
      {
        "view_history": [
          {
            "page_index": 0,
            "viewing_time": 2417
          },
          {
            "page_index": 1,
            "viewing_time": 3181
          }
        ],
        "rt": 5599,
        "trial_type": "instructions",
        "trial_index": 2,
        "time_elapsed": 9426,
        "internal_node_id": "0.0-2.0"
      },
      {
        "view_history": [
          {
            "page_index": 0,
            "viewing_time": 2501
          }
        ],
        "rt": 2501,
        "stimulus_type": "temp",
        "trial_type": "instructions",
        "trial_index": 3,
        "time_elapsed": 11928,
        "internal_node_id": "0.0-3.0"
      },
      {
        "rt": 2716,
        "stimulus": "Now the graph will be shown to you",
        "response": "v",
        "trial_type": "html-keyboard-response",
        "trial_index": 4,
        "time_elapsed": 14646,
        "internal_node_id": "0.0-4.0"
      },
      {
        "rt": 4666,
        "stimulus": "<div style='float: center;'><img src=../img/plots/grand_traverse_bay_temp.png width=\"1000\" ></img></div>",
        "response": "v",
        "stimulus_type": "../img/plots/grand_traverse_bay_temp.png",
        "trial_type": "html-keyboard-response",
        "trial_index": 5,
        "time_elapsed": 19312,
        "internal_node_id": "0.0-5.0"
      },
      {
        "rt": 14891,
        "response": {
          "Freeze": 5,
          "Climate": 5,
          "Temperature": 5,
          "Attention": 9
        },
        "question_order": [
          1,
          2,
          0,
          3
        ],
        "trial_type": "survey-likert",
        "trial_index": 6,
        "time_elapsed": 34205,
        "internal_node_id": "0.0-6.0"
      }
    ]
  },
  "__v": 0
},
{
  "_id": {
    "$oid": "66c9e6d46eecf1068c7bce35"
  },
  "data": {
    "trials": [
      {
        "success": true,
        "timeout": false,
        "failed_images": [],
        "failed_audio": [],
        "failed_video": [],
        "trial_type": "preload",
        "trial_index": 0,
        "time_elapsed": 1337,
        "internal_node_id": "0.0-0.0"
      },
      {
        "rt": 6865,
        "response": {
          "Q0": " I consent to participate"
        },
        "question_order": [
          0
        ],
        "trial_type": "survey-multi-choice",
        "trial_index": 1,
        "time_elapsed": 8203,
        "internal_node_id": "0.0-1.0"
      },
      {
        "view_history": [
          {
            "page_index": 0,
            "viewing_time": 4904
          },
          {
            "page_index": 1,
            "viewing_time": 15572
          }
        ],
        "rt": 20476,
        "trial_type": "instructions",
        "trial_index": 2,
        "time_elapsed": 28680,
        "internal_node_id": "0.0-2.0"
      },
      {
        "view_history": [
          {
            "page_index": 0,
            "viewing_time": 6026
          }
        ],
        "rt": 6026,
        "stimulus_type": "temp",
        "trial_type": "instructions",
        "trial_index": 3,
        "time_elapsed": 34706,
        "internal_node_id": "0.0-3.0"
      },
      {
        "rt": 4110,
        "stimulus": "Now the graph will be shown to you",
        "response": "v",
        "trial_type": "html-keyboard-response",
        "trial_index": 4,
        "time_elapsed": 38817,
        "internal_node_id": "0.0-4.0"
      },
      {
        "rt": 11730,
        "stimulus": "<div style='float: center;'><img src=../img/plots/sarnersee_temp.png width=\"1000\" ></img></div>",
        "response": "v",
        "stimulus_type": "../img/plots/sarnersee_temp.png",
        "trial_type": "html-keyboard-response",
        "trial_index": 5,
        "time_elapsed": 50548,
        "internal_node_id": "0.0-5.0"
      },
      {
        "rt": 27185,
        "response": {
          "Freeze": 5,
          "Temperature": 5,
          "Climate": 5,
          "Attention": 9
        },
        "question_order": [
          1,
          0,
          2,
          3
        ],
        "trial_type": "survey-likert",
        "trial_index": 6,
        "time_elapsed": 77734,
        "internal_node_id": "0.0-6.0"
      }
    ]
  },
  "__v": 0
},
{
  "_id": {
    "$oid": "66c9e6d56eecf1068c7bce37"
  },
  "data": {
    "trials": [
      {
        "success": true,
        "timeout": false,
        "failed_images": [],
        "failed_audio": [],
        "failed_video": [],
        "trial_type": "preload",
        "trial_index": 0,
        "time_elapsed": 302,
        "internal_node_id": "0.0-0.0"
      },
      {
        "rt": 11903,
        "response": {
          "Q0": " I consent to participate"
        },
        "question_order": [
          0
        ],
        "trial_type": "survey-multi-choice",
        "trial_index": 1,
        "time_elapsed": 12206,
        "internal_node_id": "0.0-1.0"
      },
      {
        "view_history": [
          {
            "page_index": 0,
            "viewing_time": 4409
          },
          {
            "page_index": 1,
            "viewing_time": 12862
          }
        ],
        "rt": 17271,
        "trial_type": "instructions",
        "trial_index": 2,
        "time_elapsed": 29481,
        "internal_node_id": "0.0-2.0"
      },
      {
        "view_history": [
          {
            "page_index": 0,
            "viewing_time": 6951
          }
        ],
        "rt": 6952,
        "stimulus_type": "temp",
        "trial_type": "instructions",
        "trial_index": 3,
        "time_elapsed": 36433,
        "internal_node_id": "0.0-3.0"
      },
      {
        "rt": 3824,
        "stimulus": "Now the graph will be shown to you",
        "response": "v",
        "trial_type": "html-keyboard-response",
        "trial_index": 4,
        "time_elapsed": 40258,
        "internal_node_id": "0.0-4.0"
      },
      {
        "rt": 20389,
        "stimulus": "<div style='float: center;'><img src=../img/plots/george_temp.png width=\"1000\" ></img></div>",
        "response": "v",
        "stimulus_type": "../img/plots/george_temp.png",
        "trial_type": "html-keyboard-response",
        "trial_index": 5,
        "time_elapsed": 60647,
        "internal_node_id": "0.0-5.0"
      },
      {
        "rt": 29963,
        "response": {
          "Attention": 9,
          "Climate": 6,
          "Freeze": 7,
          "Temperature": 6
        },
        "question_order": [
          3,
          2,
          1,
          0
        ],
        "trial_type": "survey-likert",
        "trial_index": 6,
        "time_elapsed": 90613,
        "internal_node_id": "0.0-6.0"
      }
    ]
  },
  "__v": 0
},
{
  "_id": {
    "$oid": "66c9e6d76eecf1068c7bce39"
  },
  "data": {
    "trials": [
      {
        "success": true,
        "timeout": false,
        "failed_images": [],
        "failed_audio": [],
        "failed_video": [],
        "trial_type": "preload",
        "trial_index": 0,
        "time_elapsed": 1081,
        "internal_node_id": "0.0-0.0"
      },
      {
        "rt": 21104,
        "response": {
          "Q0": " I consent to participate"
        },
        "question_order": [
          0
        ],
        "trial_type": "survey-multi-choice",
        "trial_index": 1,
        "time_elapsed": 22186,
        "internal_node_id": "0.0-1.0"
      },
      {
        "view_history": [
          {
            "page_index": 0,
            "viewing_time": 6684
          },
          {
            "page_index": 1,
            "viewing_time": 12064
          }
        ],
        "rt": 18748,
        "trial_type": "instructions",
        "trial_index": 2,
        "time_elapsed": 40935,
        "internal_node_id": "0.0-2.0"
      },
      {
        "view_history": [
          {
            "page_index": 0,
            "viewing_time": 36520
          }
        ],
        "rt": 36520,
        "stimulus_type": "temp",
        "trial_type": "instructions",
        "trial_index": 3,
        "time_elapsed": 77455,
        "internal_node_id": "0.0-3.0"
      },
      {
        "rt": 8146,
        "stimulus": "Now the graph will be shown to you",
        "response": "v",
        "trial_type": "html-keyboard-response",
        "trial_index": 4,
        "time_elapsed": 85601,
        "internal_node_id": "0.0-4.0"
      },
      {
        "rt": 16755,
        "stimulus": "<div style='float: center;'><img src=../img/plots/grand_traverse_bay_temp.png width=\"1000\" ></img></div>",
        "response": "v",
        "stimulus_type": "../img/plots/grand_traverse_bay_temp.png",
        "trial_type": "html-keyboard-response",
        "trial_index": 5,
        "time_elapsed": 102356,
        "internal_node_id": "0.0-5.0"
      },
      {
        "rt": 15645,
        "response": {
          "Climate": 9,
          "Temperature": 6,
          "Attention": 9,
          "Freeze": 6
        },
        "question_order": [
          2,
          0,
          3,
          1
        ],
        "trial_type": "survey-likert",
        "trial_index": 6,
        "time_elapsed": 118003,
        "internal_node_id": "0.0-6.0"
      }
    ]
  },
  "__v": 0
},
{
  "_id": {
    "$oid": "66c9e6d86eecf1068c7bce3b"
  },
  "data": {
    "trials": [
      {
        "success": true,
        "timeout": false,
        "failed_images": [],
        "failed_audio": [],
        "failed_video": [],
        "trial_type": "preload",
        "trial_index": 0,
        "time_elapsed": 507,
        "internal_node_id": "0.0-0.0"
      },
      {
        "rt": 16029,
        "response": {
          "Q0": " I consent to participate"
        },
        "question_order": [
          0
        ],
        "trial_type": "survey-multi-choice",
        "trial_index": 1,
        "time_elapsed": 16544,
        "internal_node_id": "0.0-1.0"
      },
      {
        "view_history": [
          {
            "page_index": 0,
            "viewing_time": 3096
          },
          {
            "page_index": 1,
            "viewing_time": 13499
          }
        ],
        "rt": 16598,
        "trial_type": "instructions",
        "trial_index": 2,
        "time_elapsed": 33152,
        "internal_node_id": "0.0-2.0"
      },
      {
        "view_history": [
          {
            "page_index": 0,
            "viewing_time": 8787
          }
        ],
        "rt": 8788,
        "stimulus_type": "temp",
        "trial_type": "instructions",
        "trial_index": 3,
        "time_elapsed": 41942,
        "internal_node_id": "0.0-3.0"
      },
      {
        "rt": 3817,
        "stimulus": "Now the graph will be shown to you",
        "response": "v",
        "trial_type": "html-keyboard-response",
        "trial_index": 4,
        "time_elapsed": 45763,
        "internal_node_id": "0.0-4.0"
      },
      {
        "rt": 11638,
        "stimulus": "<div style='float: center;'><img src=../img/plots/suwa_temp.png width=\"1000\" ></img></div>",
        "response": "v",
        "stimulus_type": "../img/plots/suwa_temp.png",
        "trial_type": "html-keyboard-response",
        "trial_index": 5,
        "time_elapsed": 57404,
        "internal_node_id": "0.0-5.0"
      },
      {
        "rt": 21065,
        "response": {
          "Freeze": 6,
          "Attention": 9,
          "Climate": 6,
          "Temperature": 7
        },
        "question_order": [
          1,
          3,
          2,
          0
        ],
        "trial_type": "survey-likert",
        "trial_index": 6,
        "time_elapsed": 78478,
        "internal_node_id": "0.0-6.0"
      }
    ]
  },
  "__v": 0
},
{
  "_id": {
    "$oid": "66c9e6da6eecf1068c7bce3d"
  },
  "data": {
    "trials": [
      {
        "success": true,
        "timeout": false,
        "failed_images": [],
        "failed_audio": [],
        "failed_video": [],
        "trial_type": "preload",
        "trial_index": 0,
        "time_elapsed": 1299,
        "internal_node_id": "0.0-0.0"
      },
      {
        "rt": 2770,
        "response": {
          "Q0": " I consent to participate"
        },
        "question_order": [
          0
        ],
        "trial_type": "survey-multi-choice",
        "trial_index": 1,
        "time_elapsed": 4070,
        "internal_node_id": "0.0-1.0"
      },
      {
        "view_history": [
          {
            "page_index": 0,
            "viewing_time": 3050
          },
          {
            "page_index": 1,
            "viewing_time": 1866
          }
        ],
        "rt": 4917,
        "trial_type": "instructions",
        "trial_index": 2,
        "time_elapsed": 8988,
        "internal_node_id": "0.0-2.0"
      },
      {
        "view_history": [
          {
            "page_index": 0,
            "viewing_time": 785
          }
        ],
        "rt": 785,
        "stimulus_type": "temp",
        "trial_type": "instructions",
        "trial_index": 3,
        "time_elapsed": 9774,
        "internal_node_id": "0.0-3.0"
      },
      {
        "rt": 6671,
        "stimulus": "Now the graph will be shown to you",
        "response": "v",
        "trial_type": "html-keyboard-response",
        "trial_index": 4,
        "time_elapsed": 16446,
        "internal_node_id": "0.0-4.0"
      },
      {
        "rt": 9228,
        "stimulus": "<div style='float: center;'><img src=../img/plots/george_temp.png width=\"1000\" ></img></div>",
        "response": "v",
        "stimulus_type": "../img/plots/george_temp.png",
        "trial_type": "html-keyboard-response",
        "trial_index": 5,
        "time_elapsed": 25674,
        "internal_node_id": "0.0-5.0"
      },
      {
        "rt": 100165,
        "response": {
          "Temperature": 5,
          "Attention": 4,
          "Freeze": 4,
          "Climate": 6
        },
        "question_order": [
          0,
          3,
          1,
          2
        ],
        "trial_type": "survey-likert",
        "trial_index": 6,
        "time_elapsed": 125841,
        "internal_node_id": "0.0-6.0"
      }
    ]
  },
  "__v": 0
},
{
  "_id": {
    "$oid": "66c9e6db6eecf1068c7bce3f"
  },
  "data": {
    "trials": [
      {
        "success": true,
        "timeout": false,
        "failed_images": [],
        "failed_audio": [],
        "failed_video": [],
        "trial_type": "preload",
        "trial_index": 0,
        "time_elapsed": 737,
        "internal_node_id": "0.0-0.0"
      },
      {
        "rt": 3764,
        "response": {
          "Q0": " I consent to participate"
        },
        "question_order": [
          0
        ],
        "trial_type": "survey-multi-choice",
        "trial_index": 1,
        "time_elapsed": 4504,
        "internal_node_id": "0.0-1.0"
      },
      {
        "view_history": [
          {
            "page_index": 0,
            "viewing_time": 4649
          },
          {
            "page_index": 1,
            "viewing_time": 18026
          }
        ],
        "rt": 22676,
        "trial_type": "instructions",
        "trial_index": 2,
        "time_elapsed": 27181,
        "internal_node_id": "0.0-2.0"
      },
      {
        "view_history": [
          {
            "page_index": 0,
            "viewing_time": 7069
          }
        ],
        "rt": 7070,
        "stimulus_type": "temp",
        "trial_type": "instructions",
        "trial_index": 3,
        "time_elapsed": 34251,
        "internal_node_id": "0.0-3.0"
      },
      {
        "rt": 3734,
        "stimulus": "Now the graph will be shown to you",
        "response": "v",
        "trial_type": "html-keyboard-response",
        "trial_index": 4,
        "time_elapsed": 37986,
        "internal_node_id": "0.0-4.0"
      },
      {
        "rt": 29105,
        "stimulus": "<div style='float: center;'><img src=../img/plots/vattern_temp.png width=\"1000\" ></img></div>",
        "response": "v",
        "stimulus_type": "../img/plots/vattern_temp.png",
        "trial_type": "html-keyboard-response",
        "trial_index": 5,
        "time_elapsed": 67091,
        "internal_node_id": "0.0-5.0"
      },
      {
        "rt": 22401,
        "response": {
          "Temperature": 3,
          "Attention": 9,
          "Climate": 3,
          "Freeze": 3
        },
        "question_order": [
          0,
          3,
          2,
          1
        ],
        "trial_type": "survey-likert",
        "trial_index": 6,
        "time_elapsed": 89497,
        "internal_node_id": "0.0-6.0"
      }
    ]
  },
  "__v": 0
},
{
  "_id": {
    "$oid": "66c9e6db6eecf1068c7bce41"
  },
  "data": {
    "trials": [
      {
        "success": true,
        "timeout": false,
        "failed_images": [],
        "failed_audio": [],
        "failed_video": [],
        "trial_type": "preload",
        "trial_index": 0,
        "time_elapsed": 1213,
        "internal_node_id": "0.0-0.0"
      },
      {
        "rt": 5264,
        "response": {
          "Q0": " I consent to participate"
        },
        "question_order": [
          0
        ],
        "trial_type": "survey-multi-choice",
        "trial_index": 1,
        "time_elapsed": 6479,
        "internal_node_id": "0.0-1.0"
      },
      {
        "view_history": [
          {
            "page_index": 0,
            "viewing_time": 2839
          },
          {
            "page_index": 1,
            "viewing_time": 11548
          }
        ],
        "rt": 14387,
        "trial_type": "instructions",
        "trial_index": 2,
        "time_elapsed": 20869,
        "internal_node_id": "0.0-2.0"
      },
      {
        "view_history": [
          {
            "page_index": 0,
            "viewing_time": 8327
          }
        ],
        "rt": 8327,
        "stimulus_type": "freeze",
        "trial_type": "instructions",
        "trial_index": 3,
        "time_elapsed": 29197,
        "internal_node_id": "0.0-3.0"
      },
      {
        "rt": 2534,
        "stimulus": "Now the graph will be shown to you",
        "response": "v",
        "trial_type": "html-keyboard-response",
        "trial_index": 4,
        "time_elapsed": 31732,
        "internal_node_id": "0.0-4.0"
      },
      {
        "rt": 8965,
        "stimulus": "<div style='float: center;'><img src=../img/plots/sarnersee_freeze.png width=\"1000\"></img></div>",
        "response": "v",
        "stimulus_type": "../img/plots/sarnersee_freeze.png",
        "trial_type": "html-keyboard-response",
        "trial_index": 5,
        "time_elapsed": 40699,
        "internal_node_id": "0.0-5.0"
      },
      {
        "rt": 21926,
        "response": {
          "Temperature": 6,
          "Attention": 9,
          "Freeze": 7,
          "Climate": 6
        },
        "question_order": [
          0,
          3,
          1,
          2
        ],
        "trial_type": "survey-likert",
        "trial_index": 6,
        "time_elapsed": 62628,
        "internal_node_id": "0.0-6.0"
      }
    ]
  },
  "__v": 0
},
{
  "_id": {
    "$oid": "66c9e6db6eecf1068c7bce43"
  },
  "data": {
    "trials": [
      {
        "success": true,
        "timeout": false,
        "failed_images": [],
        "failed_audio": [],
        "failed_video": [],
        "trial_type": "preload",
        "trial_index": 0,
        "time_elapsed": 1042,
        "internal_node_id": "0.0-0.0"
      },
      {
        "rt": 3820,
        "response": {
          "Q0": " I consent to participate"
        },
        "question_order": [
          0
        ],
        "trial_type": "survey-multi-choice",
        "trial_index": 1,
        "time_elapsed": 4864,
        "internal_node_id": "0.0-1.0"
      },
      {
        "view_history": [
          {
            "page_index": 0,
            "viewing_time": 4590
          },
          {
            "page_index": 1,
            "viewing_time": 11304
          }
        ],
        "rt": 15894,
        "trial_type": "instructions",
        "trial_index": 2,
        "time_elapsed": 20760,
        "internal_node_id": "0.0-2.0"
      },
      {
        "view_history": [
          {
            "page_index": 0,
            "viewing_time": 11608
          }
        ],
        "rt": 11608,
        "stimulus_type": "freeze",
        "trial_type": "instructions",
        "trial_index": 3,
        "time_elapsed": 32368,
        "internal_node_id": "0.0-3.0"
      },
      {
        "rt": 3896,
        "stimulus": "Now the graph will be shown to you",
        "response": "v",
        "trial_type": "html-keyboard-response",
        "trial_index": 4,
        "time_elapsed": 36265,
        "internal_node_id": "0.0-4.0"
      },
      {
        "rt": 31015,
        "stimulus": "<div style='float: center;'><img src=../img/plots/vattern_freeze.png width=\"1000\"></img></div>",
        "response": "v",
        "stimulus_type": "../img/plots/vattern_freeze.png",
        "trial_type": "html-keyboard-response",
        "trial_index": 5,
        "time_elapsed": 67281,
        "internal_node_id": "0.0-5.0"
      },
      {
        "rt": 32198,
        "response": {
          "Freeze": 8,
          "Climate": 8,
          "Attention": 9,
          "Temperature": 8
        },
        "question_order": [
          1,
          2,
          3,
          0
        ],
        "trial_type": "survey-likert",
        "trial_index": 6,
        "time_elapsed": 99481,
        "internal_node_id": "0.0-6.0"
      }
    ]
  },
  "__v": 0
},
{
  "_id": {
    "$oid": "66c9e6dc6eecf1068c7bce45"
  },
  "data": {
    "trials": [
      {
        "success": true,
        "timeout": false,
        "failed_images": [],
        "failed_audio": [],
        "failed_video": [],
        "trial_type": "preload",
        "trial_index": 0,
        "time_elapsed": 259,
        "internal_node_id": "0.0-0.0"
      },
      {
        "rt": 4205,
        "response": {
          "Q0": " I consent to participate"
        },
        "question_order": [
          0
        ],
        "trial_type": "survey-multi-choice",
        "trial_index": 1,
        "time_elapsed": 4466,
        "internal_node_id": "0.0-1.0"
      },
      {
        "view_history": [
          {
            "page_index": 0,
            "viewing_time": 2062
          },
          {
            "page_index": 1,
            "viewing_time": 13682
          }
        ],
        "rt": 15745,
        "trial_type": "instructions",
        "trial_index": 2,
        "time_elapsed": 20215,
        "internal_node_id": "0.0-2.0"
      },
      {
        "view_history": [
          {
            "page_index": 0,
            "viewing_time": 11181
          }
        ],
        "rt": 11182,
        "stimulus_type": "freeze",
        "trial_type": "instructions",
        "trial_index": 3,
        "time_elapsed": 31398,
        "internal_node_id": "0.0-3.0"
      },
      {
        "rt": 3796,
        "stimulus": "Now the graph will be shown to you",
        "response": "v",
        "trial_type": "html-keyboard-response",
        "trial_index": 4,
        "time_elapsed": 35196,
        "internal_node_id": "0.0-4.0"
      },
      {
        "rt": 7543,
        "stimulus": "<div style='float: center;'><img src=../img/plots/vattern_freeze.png width=\"1000\"></img></div>",
        "response": "v",
        "stimulus_type": "../img/plots/vattern_freeze.png",
        "trial_type": "html-keyboard-response",
        "trial_index": 5,
        "time_elapsed": 42741,
        "internal_node_id": "0.0-5.0"
      },
      {
        "rt": 23888,
        "response": {
          "Temperature": 5,
          "Climate": 7,
          "Freeze": 7,
          "Attention": 9
        },
        "question_order": [
          0,
          2,
          1,
          3
        ],
        "trial_type": "survey-likert",
        "trial_index": 6,
        "time_elapsed": 66632,
        "internal_node_id": "0.0-6.0"
      }
    ]
  },
  "__v": 0
},
{
  "_id": {
    "$oid": "66c9e6dd6eecf1068c7bce47"
  },
  "data": {
    "trials": [
      {
        "success": true,
        "timeout": false,
        "failed_images": [],
        "failed_audio": [],
        "failed_video": [],
        "trial_type": "preload",
        "trial_index": 0,
        "time_elapsed": 1024,
        "internal_node_id": "0.0-0.0"
      },
      {
        "rt": 5962,
        "response": {
          "Q0": " I consent to participate"
        },
        "question_order": [
          0
        ],
        "trial_type": "survey-multi-choice",
        "trial_index": 1,
        "time_elapsed": 6986,
        "internal_node_id": "0.0-1.0"
      },
      {
        "view_history": [
          {
            "page_index": 0,
            "viewing_time": 4174
          },
          {
            "page_index": 1,
            "viewing_time": 18039
          }
        ],
        "rt": 22213,
        "trial_type": "instructions",
        "trial_index": 2,
        "time_elapsed": 29201,
        "internal_node_id": "0.0-2.0"
      },
      {
        "view_history": [
          {
            "page_index": 0,
            "viewing_time": 16863
          }
        ],
        "rt": 16863,
        "stimulus_type": "freeze",
        "trial_type": "instructions",
        "trial_index": 3,
        "time_elapsed": 46064,
        "internal_node_id": "0.0-3.0"
      },
      {
        "rt": 3245,
        "stimulus": "Now the graph will be shown to you",
        "response": "v",
        "trial_type": "html-keyboard-response",
        "trial_index": 4,
        "time_elapsed": 49310,
        "internal_node_id": "0.0-4.0"
      },
      {
        "rt": 20650,
        "stimulus": "<div style='float: center;'><img src=../img/plots/suwa_freeze.png width=\"1000\"></img></div>",
        "response": "v",
        "stimulus_type": "../img/plots/suwa_freeze.png",
        "trial_type": "html-keyboard-response",
        "trial_index": 5,
        "time_elapsed": 69961,
        "internal_node_id": "0.0-5.0"
      },
      {
        "rt": 48100,
        "response": {
          "Attention": 9,
          "Temperature": 8,
          "Freeze": 9,
          "Climate": 7
        },
        "question_order": [
          3,
          0,
          1,
          2
        ],
        "trial_type": "survey-likert",
        "trial_index": 6,
        "time_elapsed": 118062,
        "internal_node_id": "0.0-6.0"
      }
    ]
  },
  "__v": 0
},
{
  "_id": {
    "$oid": "66c9e6dd6eecf1068c7bce49"
  },
  "data": {
    "trials": [
      {
        "success": true,
        "timeout": false,
        "failed_images": [],
        "failed_audio": [],
        "failed_video": [],
        "trial_type": "preload",
        "trial_index": 0,
        "time_elapsed": 15055,
        "internal_node_id": "0.0-0.0"
      },
      {
        "rt": 8227,
        "response": {
          "Q0": " I consent to participate"
        },
        "question_order": [
          0
        ],
        "trial_type": "survey-multi-choice",
        "trial_index": 1,
        "time_elapsed": 23284,
        "internal_node_id": "0.0-1.0"
      },
      {
        "view_history": [
          {
            "page_index": 0,
            "viewing_time": 2977
          },
          {
            "page_index": 1,
            "viewing_time": 15652
          }
        ],
        "rt": 18629,
        "trial_type": "instructions",
        "trial_index": 2,
        "time_elapsed": 41916,
        "internal_node_id": "0.0-2.0"
      },
      {
        "view_history": [
          {
            "page_index": 0,
            "viewing_time": 15511
          }
        ],
        "rt": 15511,
        "stimulus_type": "temp",
        "trial_type": "instructions",
        "trial_index": 3,
        "time_elapsed": 57428,
        "internal_node_id": "0.0-3.0"
      },
      {
        "rt": 6316,
        "stimulus": "Now the graph will be shown to you",
        "response": "v",
        "trial_type": "html-keyboard-response",
        "trial_index": 4,
        "time_elapsed": 63745,
        "internal_node_id": "0.0-4.0"
      },
      {
        "rt": 16605,
        "stimulus": "<div style='float: center;'><img src=../img/plots/suwa_temp.png width=\"1000\" ></img></div>",
        "response": "v",
        "stimulus_type": "../img/plots/suwa_temp.png",
        "trial_type": "html-keyboard-response",
        "trial_index": 5,
        "time_elapsed": 80350,
        "internal_node_id": "0.0-5.0"
      },
      {
        "rt": 25977,
        "response": {
          "Attention": 9,
          "Temperature": 9,
          "Freeze": 9,
          "Climate": 9
        },
        "question_order": [
          3,
          0,
          1,
          2
        ],
        "trial_type": "survey-likert",
        "trial_index": 6,
        "time_elapsed": 106330,
        "internal_node_id": "0.0-6.0"
      }
    ]
  },
  "__v": 0
},
{
  "_id": {
    "$oid": "66c9e6e06eecf1068c7bce4b"
  },
  "data": {
    "trials": [
      {
        "success": true,
        "timeout": false,
        "failed_images": [],
        "failed_audio": [],
        "failed_video": [],
        "trial_type": "preload",
        "trial_index": 0,
        "time_elapsed": 1613,
        "internal_node_id": "0.0-0.0"
      },
      {
        "rt": 2841,
        "response": {
          "Q0": " I consent to participate"
        },
        "question_order": [
          0
        ],
        "trial_type": "survey-multi-choice",
        "trial_index": 1,
        "time_elapsed": 4457,
        "internal_node_id": "0.0-1.0"
      },
      {
        "view_history": [
          {
            "page_index": 0,
            "viewing_time": 3190
          },
          {
            "page_index": 1,
            "viewing_time": 6238
          }
        ],
        "rt": 9429,
        "trial_type": "instructions",
        "trial_index": 2,
        "time_elapsed": 13895,
        "internal_node_id": "0.0-2.0"
      },
      {
        "view_history": [
          {
            "page_index": 0,
            "viewing_time": 9464
          }
        ],
        "rt": 9465,
        "stimulus_type": "freeze",
        "trial_type": "instructions",
        "trial_index": 3,
        "time_elapsed": 23360,
        "internal_node_id": "0.0-3.0"
      },
      {
        "rt": 2351,
        "stimulus": "Now the graph will be shown to you",
        "response": "v",
        "trial_type": "html-keyboard-response",
        "trial_index": 4,
        "time_elapsed": 25714,
        "internal_node_id": "0.0-4.0"
      },
      {
        "rt": 5475,
        "stimulus": "<div style='float: center;'><img src=../img/plots/grand_traverse_bay_freeze.png width=\"1000\"></img></div>",
        "response": "v",
        "stimulus_type": "../img/plots/grand_traverse_bay_freeze.png",
        "trial_type": "html-keyboard-response",
        "trial_index": 5,
        "time_elapsed": 31191,
        "internal_node_id": "0.0-5.0"
      },
      {
        "rt": 13508,
        "response": {
          "Temperature": 8,
          "Climate": 8,
          "Freeze": 8,
          "Attention": 9
        },
        "question_order": [
          0,
          2,
          1,
          3
        ],
        "trial_type": "survey-likert",
        "trial_index": 6,
        "time_elapsed": 44704,
        "internal_node_id": "0.0-6.0"
      }
    ]
  },
  "__v": 0
},
{
  "_id": {
    "$oid": "66c9e6e26eecf1068c7bce4d"
  },
  "data": {
    "trials": [
      {
        "success": true,
        "timeout": false,
        "failed_images": [],
        "failed_audio": [],
        "failed_video": [],
        "trial_type": "preload",
        "trial_index": 0,
        "time_elapsed": 1056,
        "internal_node_id": "0.0-0.0"
      },
      {
        "rt": 19612,
        "response": {
          "Q0": " I consent to participate"
        },
        "question_order": [
          0
        ],
        "trial_type": "survey-multi-choice",
        "trial_index": 1,
        "time_elapsed": 20676,
        "internal_node_id": "0.0-1.0"
      },
      {
        "view_history": [
          {
            "page_index": 0,
            "viewing_time": 5028
          },
          {
            "page_index": 1,
            "viewing_time": 17167
          }
        ],
        "rt": 22196,
        "trial_type": "instructions",
        "trial_index": 2,
        "time_elapsed": 42878,
        "internal_node_id": "0.0-2.0"
      },
      {
        "view_history": [
          {
            "page_index": 0,
            "viewing_time": 15197
          }
        ],
        "rt": 15197,
        "stimulus_type": "freeze",
        "trial_type": "instructions",
        "trial_index": 3,
        "time_elapsed": 58077,
        "internal_node_id": "0.0-3.0"
      },
      {
        "rt": 3687,
        "stimulus": "Now the graph will be shown to you",
        "response": "v",
        "trial_type": "html-keyboard-response",
        "trial_index": 4,
        "time_elapsed": 61767,
        "internal_node_id": "0.0-4.0"
      },
      {
        "rt": 18645,
        "stimulus": "<div style='float: center;'><img src=../img/plots/george_freeze.png width=\"1000\"></img></div>",
        "response": "v",
        "stimulus_type": "../img/plots/george_freeze.png",
        "trial_type": "html-keyboard-response",
        "trial_index": 5,
        "time_elapsed": 80414,
        "internal_node_id": "0.0-5.0"
      },
      {
        "rt": 28724,
        "response": {
          "Attention": 9,
          "Temperature": 7,
          "Freeze": 7,
          "Climate": 7
        },
        "question_order": [
          3,
          0,
          1,
          2
        ],
        "trial_type": "survey-likert",
        "trial_index": 6,
        "time_elapsed": 109144,
        "internal_node_id": "0.0-6.0"
      }
    ]
  },
  "__v": 0
},
{
  "_id": {
    "$oid": "66c9e6e36eecf1068c7bce4f"
  },
  "data": {
    "trials": [
      {
        "success": true,
        "timeout": false,
        "failed_images": [],
        "failed_audio": [],
        "failed_video": [],
        "trial_type": "preload",
        "trial_index": 0,
        "time_elapsed": 474,
        "internal_node_id": "0.0-0.0"
      },
      {
        "rt": 7789,
        "response": {
          "Q0": " I consent to participate"
        },
        "question_order": [
          0
        ],
        "trial_type": "survey-multi-choice",
        "trial_index": 1,
        "time_elapsed": 8264,
        "internal_node_id": "0.0-1.0"
      },
      {
        "view_history": [
          {
            "page_index": 0,
            "viewing_time": 6976
          },
          {
            "page_index": 1,
            "viewing_time": 16687
          }
        ],
        "rt": 23663,
        "trial_type": "instructions",
        "trial_index": 2,
        "time_elapsed": 31930,
        "internal_node_id": "0.0-2.0"
      },
      {
        "view_history": [
          {
            "page_index": 0,
            "viewing_time": 13773
          }
        ],
        "rt": 13773,
        "stimulus_type": "freeze",
        "trial_type": "instructions",
        "trial_index": 3,
        "time_elapsed": 45703,
        "internal_node_id": "0.0-3.0"
      },
      {
        "rt": 3047,
        "stimulus": "Now the graph will be shown to you",
        "response": "v",
        "trial_type": "html-keyboard-response",
        "trial_index": 4,
        "time_elapsed": 48752,
        "internal_node_id": "0.0-4.0"
      },
      {
        "rt": 9767,
        "stimulus": "<div style='float: center;'><img src=../img/plots/grand_traverse_bay_freeze.png width=\"1000\"></img></div>",
        "response": "v",
        "stimulus_type": "../img/plots/grand_traverse_bay_freeze.png",
        "trial_type": "html-keyboard-response",
        "trial_index": 5,
        "time_elapsed": 58520,
        "internal_node_id": "0.0-5.0"
      },
      {
        "rt": 29348,
        "response": {
          "Attention": 9,
          "Climate": 7,
          "Freeze": 7,
          "Temperature": 7
        },
        "question_order": [
          3,
          2,
          1,
          0
        ],
        "trial_type": "survey-likert",
        "trial_index": 6,
        "time_elapsed": 87870,
        "internal_node_id": "0.0-6.0"
      }
    ]
  },
  "__v": 0
},
{
  "_id": {
    "$oid": "66c9e6e36eecf1068c7bce51"
  },
  "data": {
    "trials": [
      {
        "success": true,
        "timeout": false,
        "failed_images": [],
        "failed_audio": [],
        "failed_video": [],
        "trial_type": "preload",
        "trial_index": 0,
        "time_elapsed": 1569,
        "internal_node_id": "0.0-0.0"
      },
      {
        "rt": 12327,
        "response": {
          "Q0": " I consent to participate"
        },
        "question_order": [
          0
        ],
        "trial_type": "survey-multi-choice",
        "trial_index": 1,
        "time_elapsed": 13900,
        "internal_node_id": "0.0-1.0"
      },
      {
        "view_history": [
          {
            "page_index": 0,
            "viewing_time": 3672
          },
          {
            "page_index": 1,
            "viewing_time": 65492
          }
        ],
        "rt": 69166,
        "trial_type": "instructions",
        "trial_index": 2,
        "time_elapsed": 83070,
        "internal_node_id": "0.0-2.0"
      },
      {
        "view_history": [
          {
            "page_index": 0,
            "viewing_time": 6966
          }
        ],
        "rt": 6967,
        "stimulus_type": "temp",
        "trial_type": "instructions",
        "trial_index": 3,
        "time_elapsed": 90037,
        "internal_node_id": "0.0-3.0"
      },
      {
        "rt": 2035,
        "stimulus": "Now the graph will be shown to you",
        "response": "v",
        "trial_type": "html-keyboard-response",
        "trial_index": 4,
        "time_elapsed": 92074,
        "internal_node_id": "0.0-4.0"
      },
      {
        "rt": 5533,
        "stimulus": "<div style='float: center;'><img src=../img/plots/sarnersee_temp.png width=\"1000\" ></img></div>",
        "response": "v",
        "stimulus_type": "../img/plots/sarnersee_temp.png",
        "trial_type": "html-keyboard-response",
        "trial_index": 5,
        "time_elapsed": 97608,
        "internal_node_id": "0.0-5.0"
      },
      {
        "rt": 31314,
        "response": {
          "Climate": 9,
          "Temperature": 8,
          "Freeze": 8,
          "Attention": 9
        },
        "question_order": [
          2,
          0,
          1,
          3
        ],
        "trial_type": "survey-likert",
        "trial_index": 6,
        "time_elapsed": 128927,
        "internal_node_id": "0.0-6.0"
      }
    ]
  },
  "__v": 0
},
{
  "_id": {
    "$oid": "66c9e6e46eecf1068c7bce53"
  },
  "data": {
    "trials": [
      {
        "success": true,
        "timeout": false,
        "failed_images": [],
        "failed_audio": [],
        "failed_video": [],
        "trial_type": "preload",
        "trial_index": 0,
        "time_elapsed": 1214,
        "internal_node_id": "0.0-0.0"
      },
      {
        "rt": 4518,
        "response": {
          "Q0": " I consent to participate"
        },
        "question_order": [
          0
        ],
        "trial_type": "survey-multi-choice",
        "trial_index": 1,
        "time_elapsed": 5731,
        "internal_node_id": "0.0-1.0"
      },
      {
        "view_history": [
          {
            "page_index": 0,
            "viewing_time": 4750
          },
          {
            "page_index": 1,
            "viewing_time": 11446
          }
        ],
        "rt": 16196,
        "trial_type": "instructions",
        "trial_index": 2,
        "time_elapsed": 21930,
        "internal_node_id": "0.0-2.0"
      },
      {
        "view_history": [
          {
            "page_index": 0,
            "viewing_time": 10206
          }
        ],
        "rt": 10207,
        "stimulus_type": "temp",
        "trial_type": "instructions",
        "trial_index": 3,
        "time_elapsed": 32139,
        "internal_node_id": "0.0-3.0"
      },
      {
        "rt": 3943,
        "stimulus": "Now the graph will be shown to you",
        "response": "v",
        "trial_type": "html-keyboard-response",
        "trial_index": 4,
        "time_elapsed": 36083,
        "internal_node_id": "0.0-4.0"
      },
      {
        "rt": 58613,
        "stimulus": "<div style='float: center;'><img src=../img/plots/grand_traverse_bay_temp.png width=\"1000\" ></img></div>",
        "response": "v",
        "stimulus_type": "../img/plots/grand_traverse_bay_temp.png",
        "trial_type": "html-keyboard-response",
        "trial_index": 5,
        "time_elapsed": 94698,
        "internal_node_id": "0.0-5.0"
      },
      {
        "rt": 32293,
        "response": {
          "Temperature": 2,
          "Attention": 9,
          "Freeze": 2,
          "Climate": 2
        },
        "question_order": [
          0,
          3,
          1,
          2
        ],
        "trial_type": "survey-likert",
        "trial_index": 6,
        "time_elapsed": 126993,
        "internal_node_id": "0.0-6.0"
      }
    ]
  },
  "__v": 0
},
{
  "_id": {
    "$oid": "66c9e6e96eecf1068c7bce55"
  },
  "data": {
    "trials": [
      {
        "success": true,
        "timeout": false,
        "failed_images": [],
        "failed_audio": [],
        "failed_video": [],
        "trial_type": "preload",
        "trial_index": 0,
        "time_elapsed": 348,
        "internal_node_id": "0.0-0.0"
      },
      {
        "rt": 3712,
        "response": {
          "Q0": " I consent to participate"
        },
        "question_order": [
          0
        ],
        "trial_type": "survey-multi-choice",
        "trial_index": 1,
        "time_elapsed": 4060,
        "internal_node_id": "0.0-1.0"
      },
      {
        "view_history": [
          {
            "page_index": 0,
            "viewing_time": 4042
          },
          {
            "page_index": 1,
            "viewing_time": 30076
          }
        ],
        "rt": 34118,
        "trial_type": "instructions",
        "trial_index": 2,
        "time_elapsed": 38179,
        "internal_node_id": "0.0-2.0"
      },
      {
        "view_history": [
          {
            "page_index": 0,
            "viewing_time": 7695
          }
        ],
        "rt": 7695,
        "stimulus_type": "temp",
        "trial_type": "instructions",
        "trial_index": 3,
        "time_elapsed": 45876,
        "internal_node_id": "0.0-3.0"
      },
      {
        "rt": 4336,
        "stimulus": "Now the graph will be shown to you",
        "response": "v",
        "trial_type": "html-keyboard-response",
        "trial_index": 4,
        "time_elapsed": 50212,
        "internal_node_id": "0.0-4.0"
      },
      {
        "rt": 6699,
        "stimulus": "<div style='float: center;'><img src=../img/plots/sarnersee_temp.png width=\"1000\" ></img></div>",
        "response": "v",
        "stimulus_type": "../img/plots/sarnersee_temp.png",
        "trial_type": "html-keyboard-response",
        "trial_index": 5,
        "time_elapsed": 56912,
        "internal_node_id": "0.0-5.0"
      },
      {
        "rt": 19053,
        "response": {
          "Temperature": 9,
          "Climate": 9,
          "Freeze": 5,
          "Attention": 9
        },
        "question_order": [
          0,
          2,
          1,
          3
        ],
        "trial_type": "survey-likert",
        "trial_index": 6,
        "time_elapsed": 75967,
        "internal_node_id": "0.0-6.0"
      }
    ]
  },
  "__v": 0
},
{
  "_id": {
    "$oid": "66c9e6ef6eecf1068c7bce57"
  },
  "data": {
    "trials": [
      {
        "success": true,
        "timeout": false,
        "failed_images": [],
        "failed_audio": [],
        "failed_video": [],
        "trial_type": "preload",
        "trial_index": 0,
        "time_elapsed": 435,
        "internal_node_id": "0.0-0.0"
      },
      {
        "rt": 4572,
        "response": {
          "Q0": " I consent to participate"
        },
        "question_order": [
          0
        ],
        "trial_type": "survey-multi-choice",
        "trial_index": 1,
        "time_elapsed": 5008,
        "internal_node_id": "0.0-1.0"
      },
      {
        "view_history": [
          {
            "page_index": 0,
            "viewing_time": 2765
          },
          {
            "page_index": 1,
            "viewing_time": 24143
          }
        ],
        "rt": 26908,
        "trial_type": "instructions",
        "trial_index": 2,
        "time_elapsed": 31917,
        "internal_node_id": "0.0-2.0"
      },
      {
        "view_history": [
          {
            "page_index": 0,
            "viewing_time": 22195
          }
        ],
        "rt": 22195,
        "stimulus_type": "freeze",
        "trial_type": "instructions",
        "trial_index": 3,
        "time_elapsed": 54114,
        "internal_node_id": "0.0-3.0"
      },
      {
        "rt": 5018,
        "stimulus": "Now the graph will be shown to you",
        "response": "v",
        "trial_type": "html-keyboard-response",
        "trial_index": 4,
        "time_elapsed": 59132,
        "internal_node_id": "0.0-4.0"
      },
      {
        "rt": 36047,
        "stimulus": "<div style='float: center;'><img src=../img/plots/sarnersee_freeze.png width=\"1000\"></img></div>",
        "response": "v",
        "stimulus_type": "../img/plots/sarnersee_freeze.png",
        "trial_type": "html-keyboard-response",
        "trial_index": 5,
        "time_elapsed": 95179,
        "internal_node_id": "0.0-5.0"
      },
      {
        "rt": 31179,
        "response": {
          "Attention": 9,
          "Temperature": 9,
          "Freeze": 8,
          "Climate": 5
        },
        "question_order": [
          3,
          0,
          1,
          2
        ],
        "trial_type": "survey-likert",
        "trial_index": 6,
        "time_elapsed": 126359,
        "internal_node_id": "0.0-6.0"
      }
    ]
  },
  "__v": 0
},
{
  "_id": {
    "$oid": "66c9e6f16eecf1068c7bce59"
  },
  "data": {
    "trials": [
      {
        "success": true,
        "timeout": false,
        "failed_images": [],
        "failed_audio": [],
        "failed_video": [],
        "trial_type": "preload",
        "trial_index": 0,
        "time_elapsed": 431,
        "internal_node_id": "0.0-0.0"
      },
      {
        "rt": 10147,
        "response": {
          "Q0": " I consent to participate"
        },
        "question_order": [
          0
        ],
        "trial_type": "survey-multi-choice",
        "trial_index": 1,
        "time_elapsed": 10579,
        "internal_node_id": "0.0-1.0"
      },
      {
        "view_history": [
          {
            "page_index": 0,
            "viewing_time": 1655
          },
          {
            "page_index": 1,
            "viewing_time": 4175
          }
        ],
        "rt": 5830,
        "trial_type": "instructions",
        "trial_index": 2,
        "time_elapsed": 16411,
        "internal_node_id": "0.0-2.0"
      },
      {
        "view_history": [
          {
            "page_index": 0,
            "viewing_time": 6471
          }
        ],
        "rt": 6472,
        "stimulus_type": "temp",
        "trial_type": "instructions",
        "trial_index": 3,
        "time_elapsed": 22883,
        "internal_node_id": "0.0-3.0"
      },
      {
        "rt": 4838,
        "stimulus": "Now the graph will be shown to you",
        "response": "v",
        "trial_type": "html-keyboard-response",
        "trial_index": 4,
        "time_elapsed": 27722,
        "internal_node_id": "0.0-4.0"
      },
      {
        "rt": 4999,
        "stimulus": "<div style='float: center;'><img src=../img/plots/vattern_temp.png width=\"1000\" ></img></div>",
        "response": "v",
        "stimulus_type": "../img/plots/vattern_temp.png",
        "trial_type": "html-keyboard-response",
        "trial_index": 5,
        "time_elapsed": 32722,
        "internal_node_id": "0.0-5.0"
      },
      {
